sub_ID,trial_number,physical_activation,trial_congruency,resp_correctness,reaction_times
sub-19,1,high_activation,congruent,correct,551
sub-19,2,high_activation,incongruent,correct,430
sub-19,3,high_activation,incongruent,correct,394
sub-19,4,high_activation,incongruent,correct,344
sub-19,5,high_activation,congruent,correct,416
sub-19,6,high_activation,incongruent,correct,362
sub-19,7,high_activation,incongruent,correct,368
sub-19,8,high_activation,incongruent,correct,306
sub-19,9,high_activation,congruent,correct,329
sub-19,10,high_activation,incongruent,correct,464
sub-19,11,high_activation,congruent,correct,337
sub-19,12,high_activation,incongruent,correct,365
sub-19,13,high_activation,congruent,correct,348
sub-19,14,high_activation,incongruent,correct,389
sub-19,15,high_activation,incongruent,correct,334
sub-19,16,high_activation,incongruent,correct,348
sub-19,17,high_activation,congruent,correct,371
sub-19,18,high_activation,congruent,correct,332
sub-19,19,high_activation,congruent,correct,421
sub-19,20,high_activation,congruent,correct,375
sub-19,21,high_activation,congruent,correct,431
sub-19,22,high_activation,incongruent,correct,445
sub-19,23,high_activation,congruent,correct,365
sub-19,24,high_activation,congruent,correct,345
sub-19,25,high_activation,congruent,correct,277
sub-19,26,high_activation,congruent,correct,292
sub-19,27,high_activation,congruent,correct,341
sub-19,28,high_activation,congruent,correct,339
sub-19,29,high_activation,incongruent,incorrect,314
sub-19,30,high_activation,incongruent,correct,388
sub-19,31,high_activation,congruent,correct,382
sub-19,32,high_activation,congruent,correct,387
sub-19,33,high_activation,congruent,correct,359
sub-19,34,high_activation,congruent,correct,349
sub-19,35,high_activation,incongruent,correct,342
sub-19,36,high_activation,congruent,correct,490
sub-19,37,high_activation,incongruent,correct,368
sub-19,38,high_activation,congruent,correct,342
sub-19,39,high_activation,congruent,correct,420
sub-19,40,high_activation,congruent,correct,320
sub-19,41,high_activation,congruent,correct,284
sub-19,42,high_activation,incongruent,correct,289
sub-19,43,high_activation,incongruent,correct,358
sub-19,44,high_activation,congruent,correct,354
sub-19,45,high_activation,incongruent,correct,340
sub-19,46,high_activation,incongruent,correct,353
sub-19,47,high_activation,congruent,correct,334
sub-19,48,high_activation,incongruent,correct,406
sub-19,49,high_activation,incongruent,correct,404
sub-19,50,high_activation,incongruent,correct,379
sub-19,51,high_activation,congruent,correct,336
sub-19,52,high_activation,congruent,correct,261
sub-19,53,high_activation,congruent,correct,351
sub-19,54,high_activation,incongruent,correct,365
sub-19,55,high_activation,congruent,correct,416
sub-19,56,high_activation,congruent,correct,329
sub-19,57,high_activation,congruent,correct,313
sub-19,58,high_activation,congruent,correct,454
sub-19,59,high_activation,incongruent,correct,314
sub-19,60,high_activation,incongruent,correct,396
sub-19,61,high_activation,congruent,correct,360
sub-19,62,high_activation,congruent,correct,381
sub-19,63,high_activation,congruent,correct,332
sub-19,64,high_activation,incongruent,correct,415
sub-19,65,high_activation,congruent,correct,380
sub-19,66,high_activation,incongruent,correct,418
sub-19,67,high_activation,congruent,correct,324
sub-19,68,high_activation,incongruent,correct,460
sub-19,69,high_activation,congruent,correct,373
sub-19,70,high_activation,incongruent,correct,347
sub-19,71,high_activation,incongruent,correct,320
sub-19,72,high_activation,incongruent,correct,369
sub-19,73,high_activation,incongruent,correct,374
sub-19,74,high_activation,congruent,correct,296
sub-19,75,high_activation,incongruent,correct,389
sub-19,76,high_activation,congruent,correct,401
sub-19,77,high_activation,congruent,correct,318
sub-19,78,high_activation,incongruent,correct,436
sub-19,79,high_activation,congruent,correct,448
sub-19,80,high_activation,incongruent,correct,410
sub-19,81,high_activation,congruent,correct,297
sub-19,82,high_activation,incongruent,correct,394
sub-19,83,high_activation,congruent,correct,394
sub-19,84,high_activation,incongruent,correct,368
sub-19,85,high_activation,incongruent,correct,318
sub-19,86,high_activation,congruent,correct,334
sub-19,87,high_activation,incongruent,correct,428
sub-19,88,high_activation,incongruent,correct,428
sub-19,89,high_activation,congruent,correct,329
sub-19,90,high_activation,congruent,correct,348
sub-19,91,high_activation,congruent,correct,274
sub-19,92,high_activation,incongruent,correct,408
sub-19,93,high_activation,congruent,correct,300
sub-19,94,high_activation,congruent,correct,309
sub-19,95,high_activation,incongruent,correct,350
sub-19,96,high_activation,incongruent,correct,346
sub-19,97,high_activation,incongruent,correct,365
sub-19,98,high_activation,incongruent,correct,284
sub-19,99,high_activation,congruent,correct,385
sub-19,100,high_activation,incongruent,correct,517
sub-19,101,high_activation,congruent,correct,430
sub-19,102,high_activation,incongruent,correct,414
sub-19,103,high_activation,congruent,correct,324
sub-19,104,high_activation,incongruent,correct,403
sub-19,105,high_activation,incongruent,correct,533
sub-19,106,high_activation,incongruent,correct,354
sub-19,107,high_activation,incongruent,correct,395
sub-19,108,high_activation,incongruent,correct,350
sub-19,109,high_activation,congruent,correct,386
sub-19,110,high_activation,incongruent,correct,378
sub-19,111,high_activation,congruent,correct,453
sub-19,112,high_activation,incongruent,correct,347
sub-19,113,high_activation,congruent,correct,342
sub-19,114,high_activation,congruent,correct,316
sub-19,115,high_activation,congruent,correct,351
sub-19,116,high_activation,congruent,correct,252
sub-19,117,high_activation,incongruent,correct,427
sub-19,118,high_activation,incongruent,correct,439
sub-19,119,high_activation,incongruent,correct,369
sub-19,120,high_activation,congruent,correct,406
sub-19,121,high_activation,incongruent,correct,399
sub-19,122,high_activation,incongruent,correct,324
sub-19,123,high_activation,incongruent,correct,401
sub-19,124,high_activation,congruent,correct,291
sub-19,125,high_activation,incongruent,correct,342
sub-19,126,high_activation,congruent,correct,397
sub-19,127,high_activation,congruent,correct,305
sub-19,128,high_activation,congruent,correct,315
sub-19,129,high_activation,incongruent,correct,324
sub-19,130,high_activation,incongruent,correct,299
sub-19,131,high_activation,congruent,correct,289
sub-19,132,high_activation,congruent,correct,298
sub-19,133,high_activation,congruent,correct,449
sub-19,134,high_activation,incongruent,correct,338
sub-19,135,high_activation,congruent,correct,377
sub-19,136,high_activation,congruent,correct,337
sub-19,137,high_activation,congruent,correct,293
sub-19,138,high_activation,congruent,correct,347
sub-19,139,high_activation,congruent,correct,291
sub-19,140,high_activation,incongruent,incorrect,354
sub-19,141,high_activation,congruent,correct,342
sub-19,142,high_activation,congruent,correct,331
sub-19,143,high_activation,congruent,correct,425
sub-19,144,high_activation,incongruent,correct,345
sub-19,145,high_activation,incongruent,correct,306
sub-19,146,high_activation,incongruent,correct,356
sub-19,147,high_activation,congruent,correct,312
sub-19,148,high_activation,congruent,correct,302
sub-19,149,high_activation,incongruent,correct,366
sub-19,150,high_activation,incongruent,correct,316
sub-19,151,high_activation,incongruent,correct,377
sub-19,152,high_activation,incongruent,incorrect,281
sub-19,153,high_activation,incongruent,correct,384
sub-19,154,high_activation,congruent,correct,338
sub-19,155,high_activation,incongruent,correct,436
sub-19,156,high_activation,congruent,correct,362
sub-19,157,high_activation,congruent,correct,352
sub-19,158,high_activation,incongruent,correct,334
sub-19,159,high_activation,congruent,correct,326
sub-19,160,high_activation,incongruent,correct,393
sub-19,161,high_activation,incongruent,correct,370
sub-19,162,high_activation,incongruent,correct,336
sub-19,163,high_activation,incongruent,correct,320
sub-19,164,high_activation,incongruent,correct,432
sub-19,165,high_activation,incongruent,correct,350
sub-19,166,high_activation,congruent,correct,351
sub-19,167,high_activation,congruent,correct,321
sub-19,168,high_activation,incongruent,correct,407
sub-19,169,high_activation,congruent,correct,370
sub-19,170,high_activation,congruent,correct,394
sub-19,171,high_activation,congruent,correct,308
sub-19,172,high_activation,congruent,correct,361
sub-19,173,high_activation,congruent,correct,337
sub-19,174,high_activation,incongruent,correct,393
sub-19,175,high_activation,congruent,correct,406
sub-19,176,high_activation,incongruent,correct,387
sub-19,177,high_activation,incongruent,incorrect,376
sub-19,178,high_activation,congruent,correct,554
sub-19,179,high_activation,congruent,correct,431
sub-19,180,high_activation,incongruent,correct,405
sub-19,181,high_activation,incongruent,correct,414
sub-19,182,high_activation,incongruent,correct,394
sub-19,183,high_activation,congruent,correct,384
sub-19,184,high_activation,congruent,correct,365
sub-19,185,high_activation,incongruent,correct,426
sub-19,186,high_activation,congruent,correct,695
sub-19,187,high_activation,incongruent,correct,382
sub-19,188,high_activation,congruent,correct,388
sub-19,189,high_activation,congruent,correct,325
sub-19,190,high_activation,congruent,correct,290
sub-19,191,high_activation,congruent,correct,320
sub-19,192,high_activation,incongruent,correct,340
sub-19,193,high_activation,congruent,correct,308
sub-19,194,high_activation,incongruent,correct,418
sub-19,195,high_activation,incongruent,correct,385
sub-19,196,high_activation,congruent,correct,314
sub-19,197,high_activation,congruent,correct,362
sub-19,198,high_activation,congruent,correct,348
sub-19,199,high_activation,congruent,correct,417
sub-19,200,high_activation,incongruent,correct,372
sub-19,201,high_activation,incongruent,correct,352
sub-19,202,high_activation,incongruent,correct,332
sub-19,203,high_activation,congruent,correct,427
sub-19,204,high_activation,incongruent,correct,392
sub-19,205,high_activation,incongruent,correct,500
sub-19,206,high_activation,congruent,correct,310
sub-19,207,high_activation,incongruent,correct,400
sub-19,208,high_activation,incongruent,correct,312
sub-19,209,high_activation,congruent,incorrect,410
sub-19,210,high_activation,congruent,correct,337
sub-19,211,high_activation,congruent,correct,368
sub-19,212,high_activation,incongruent,correct,425
sub-19,213,high_activation,incongruent,correct,338
sub-19,214,high_activation,incongruent,correct,440
sub-19,215,high_activation,congruent,,
sub-19,216,high_activation,congruent,correct,404
sub-19,217,high_activation,congruent,correct,381
sub-19,218,high_activation,congruent,correct,320
sub-19,219,high_activation,incongruent,correct,461
sub-19,220,high_activation,congruent,correct,376
sub-19,221,high_activation,congruent,correct,372
sub-19,222,high_activation,congruent,correct,399
sub-19,223,high_activation,incongruent,correct,466
sub-19,224,high_activation,congruent,correct,449
sub-19,225,high_activation,congruent,correct,380
sub-19,226,high_activation,congruent,correct,440
sub-19,227,high_activation,incongruent,correct,324
sub-19,228,high_activation,congruent,correct,458
sub-19,229,high_activation,incongruent,correct,396
sub-19,230,high_activation,congruent,correct,353
sub-19,231,high_activation,congruent,correct,322
sub-19,232,high_activation,incongruent,correct,425
sub-19,233,high_activation,incongruent,correct,380
sub-19,234,high_activation,incongruent,correct,412
sub-19,235,high_activation,congruent,correct,370
sub-19,236,high_activation,incongruent,correct,401
sub-19,237,high_activation,congruent,correct,412
sub-19,238,high_activation,congruent,correct,384
sub-19,239,high_activation,incongruent,correct,411
sub-19,240,high_activation,incongruent,correct,438
sub-19,241,high_activation,incongruent,correct,406
sub-19,242,high_activation,incongruent,correct,411
sub-19,243,high_activation,incongruent,correct,374
sub-19,244,high_activation,congruent,correct,315
sub-19,245,high_activation,congruent,correct,282
sub-19,246,high_activation,congruent,correct,355
sub-19,247,high_activation,congruent,correct,460
sub-19,248,high_activation,congruent,correct,350
sub-19,249,high_activation,congruent,correct,425
sub-19,250,high_activation,incongruent,correct,487
sub-19,251,high_activation,congruent,correct,421
sub-19,252,high_activation,congruent,correct,398
sub-19,253,high_activation,incongruent,correct,495
sub-19,254,high_activation,incongruent,correct,276
sub-19,255,high_activation,incongruent,correct,436
sub-19,256,high_activation,incongruent,correct,421
sub-19,257,high_activation,congruent,correct,384
sub-19,258,high_activation,incongruent,correct,478
sub-19,259,high_activation,congruent,correct,428
sub-19,260,high_activation,congruent,correct,353
sub-19,261,high_activation,incongruent,correct,402
sub-19,262,high_activation,incongruent,correct,337
sub-19,263,high_activation,incongruent,correct,396
sub-19,264,high_activation,incongruent,correct,407
sub-19,265,high_activation,incongruent,correct,432
sub-19,266,high_activation,incongruent,correct,375
sub-19,267,high_activation,incongruent,correct,402
sub-19,268,high_activation,congruent,correct,361
sub-19,269,high_activation,congruent,correct,412
sub-19,270,high_activation,congruent,correct,352
sub-19,271,high_activation,congruent,correct,426
sub-19,272,high_activation,congruent,correct,331
sub-19,273,high_activation,congruent,correct,374
sub-19,274,high_activation,incongruent,correct,462
sub-19,275,high_activation,incongruent,correct,390
sub-19,276,high_activation,congruent,correct,373
sub-19,277,high_activation,incongruent,correct,391
sub-19,278,high_activation,congruent,correct,332
sub-19,279,high_activation,incongruent,correct,374
sub-19,280,high_activation,congruent,correct,366
sub-19,281,high_activation,congruent,correct,396
sub-19,282,high_activation,congruent,correct,343
sub-19,283,high_activation,congruent,correct,337
sub-19,284,high_activation,incongruent,correct,411
sub-19,285,high_activation,incongruent,correct,402
sub-19,286,high_activation,incongruent,correct,383
sub-19,287,high_activation,congruent,correct,350
sub-19,288,high_activation,congruent,correct,324
sub-19,289,high_activation,incongruent,correct,341
sub-19,290,high_activation,incongruent,correct,342
sub-19,291,high_activation,incongruent,correct,405
sub-19,292,high_activation,congruent,correct,335
sub-19,293,high_activation,incongruent,correct,437
sub-19,294,high_activation,incongruent,correct,370
sub-19,295,high_activation,incongruent,correct,361
sub-19,296,high_activation,incongruent,correct,417
sub-19,297,high_activation,incongruent,correct,326
sub-19,298,high_activation,incongruent,correct,429
sub-19,299,high_activation,congruent,correct,321
sub-19,300,high_activation,incongruent,correct,368
sub-19,301,high_activation,congruent,correct,334
sub-19,302,high_activation,congruent,correct,462
sub-19,303,high_activation,congruent,correct,322
sub-19,304,high_activation,congruent,correct,362
sub-19,305,high_activation,incongruent,correct,431
sub-19,306,high_activation,congruent,correct,360
sub-19,307,high_activation,congruent,correct,409
sub-19,308,high_activation,congruent,correct,333
sub-19,309,high_activation,congruent,correct,360
sub-19,310,high_activation,congruent,correct,376
sub-19,311,high_activation,incongruent,correct,471
sub-19,312,high_activation,congruent,correct,355
sub-19,313,high_activation,incongruent,correct,422
sub-19,314,high_activation,congruent,correct,352
sub-19,315,high_activation,incongruent,correct,517
sub-19,316,high_activation,congruent,correct,360
sub-19,317,high_activation,incongruent,correct,325
sub-19,318,high_activation,congruent,correct,313
sub-19,319,high_activation,incongruent,correct,419
sub-19,320,high_activation,incongruent,correct,348
sub-19,321,high_activation,congruent,correct,424
sub-19,322,high_activation,incongruent,correct,322
sub-19,323,high_activation,incongruent,correct,294
sub-19,324,high_activation,incongruent,correct,377
sub-19,325,high_activation,congruent,,
sub-19,326,high_activation,incongruent,correct,531
sub-19,327,high_activation,incongruent,correct,361
sub-19,328,high_activation,incongruent,correct,367
sub-19,329,high_activation,congruent,correct,378
sub-19,330,high_activation,incongruent,correct,397
sub-19,331,high_activation,congruent,correct,437
sub-19,332,high_activation,congruent,correct,334
sub-19,333,high_activation,congruent,correct,324
sub-19,334,high_activation,congruent,correct,394
sub-19,335,high_activation,incongruent,correct,366
sub-19,336,high_activation,incongruent,correct,436
sub-19,337,high_activation,congruent,correct,650
sub-19,338,high_activation,incongruent,correct,376
sub-19,339,high_activation,incongruent,correct,376
sub-19,340,high_activation,congruent,correct,318
sub-19,341,high_activation,incongruent,correct,399
sub-19,342,high_activation,congruent,correct,441
sub-19,343,high_activation,congruent,correct,335
sub-19,344,high_activation,congruent,correct,352
sub-19,345,high_activation,congruent,correct,332
sub-19,346,high_activation,incongruent,correct,452
sub-19,347,high_activation,incongruent,correct,393
sub-19,348,high_activation,congruent,correct,366
sub-19,349,high_activation,incongruent,correct,338
sub-19,350,high_activation,congruent,correct,379
sub-19,351,high_activation,incongruent,correct,370
sub-19,352,high_activation,incongruent,correct,350
sub-19,353,high_activation,congruent,correct,360
sub-19,354,high_activation,congruent,correct,348
sub-19,355,high_activation,incongruent,correct,500
sub-19,356,high_activation,congruent,correct,375
sub-19,357,high_activation,congruent,correct,410
sub-19,358,high_activation,congruent,correct,328
sub-19,359,high_activation,incongruent,correct,472
sub-19,360,high_activation,congruent,correct,370
sub-19,361,high_activation,incongruent,correct,402
sub-19,362,high_activation,congruent,correct,340
sub-19,363,high_activation,congruent,correct,368
sub-19,364,high_activation,incongruent,correct,386
sub-19,365,high_activation,incongruent,correct,356
sub-19,366,high_activation,incongruent,correct,433
sub-19,367,high_activation,congruent,correct,405
sub-19,368,high_activation,congruent,correct,417
sub-19,369,high_activation,incongruent,correct,442
sub-19,370,high_activation,incongruent,correct,378
sub-19,371,high_activation,congruent,correct,412
sub-19,372,high_activation,congruent,correct,342
sub-19,373,high_activation,incongruent,correct,402
sub-19,374,high_activation,congruent,correct,391
sub-19,375,high_activation,congruent,correct,372
sub-19,376,high_activation,congruent,correct,779
sub-19,377,high_activation,congruent,correct,346
sub-19,378,high_activation,incongruent,correct,543
sub-19,379,high_activation,congruent,correct,381
sub-19,380,high_activation,incongruent,correct,418
sub-19,381,high_activation,congruent,correct,365
sub-19,382,high_activation,congruent,incorrect,418
sub-19,383,high_activation,congruent,correct,431
sub-19,384,high_activation,congruent,correct,523
sub-19,385,high_activation,incongruent,correct,406
sub-19,386,high_activation,congruent,correct,398
sub-19,387,high_activation,congruent,correct,409
sub-19,388,high_activation,congruent,correct,477
sub-19,389,high_activation,congruent,correct,299
sub-19,390,high_activation,incongruent,correct,432
sub-19,391,high_activation,incongruent,correct,442
sub-19,392,high_activation,congruent,correct,416
sub-19,393,high_activation,incongruent,correct,420
sub-19,394,high_activation,congruent,correct,446
sub-19,395,high_activation,incongruent,correct,417
sub-19,396,high_activation,incongruent,correct,485
sub-19,397,high_activation,incongruent,correct,421
sub-19,398,high_activation,incongruent,correct,402
sub-19,399,high_activation,congruent,correct,364
sub-19,400,high_activation,incongruent,correct,470
sub-19,401,high_activation,congruent,correct,410
sub-19,402,high_activation,incongruent,correct,363
sub-19,403,high_activation,incongruent,correct,361
sub-19,404,high_activation,incongruent,,
sub-19,405,high_activation,congruent,correct,356
sub-19,406,high_activation,congruent,correct,430
sub-19,407,high_activation,incongruent,correct,387
sub-19,408,high_activation,incongruent,correct,501
sub-19,409,high_activation,congruent,correct,370
sub-19,410,high_activation,incongruent,correct,416
sub-19,411,high_activation,congruent,correct,336
sub-19,412,high_activation,congruent,correct,425
sub-19,413,high_activation,congruent,correct,378
sub-19,414,high_activation,incongruent,correct,378
sub-19,415,high_activation,incongruent,correct,409
sub-19,416,high_activation,incongruent,correct,434
sub-19,417,high_activation,congruent,correct,338
sub-19,418,high_activation,incongruent,correct,404
sub-19,419,high_activation,congruent,correct,375
sub-19,420,high_activation,incongruent,correct,457
sub-19,421,high_activation,incongruent,correct,331
sub-19,422,high_activation,congruent,correct,328
sub-19,423,high_activation,congruent,correct,452
sub-19,424,high_activation,congruent,correct,330
sub-19,425,high_activation,incongruent,correct,427
sub-19,426,high_activation,incongruent,correct,436
sub-19,427,high_activation,incongruent,correct,333
sub-19,428,high_activation,incongruent,correct,425
sub-19,429,high_activation,incongruent,correct,404
sub-19,430,high_activation,incongruent,correct,345
sub-19,431,high_activation,incongruent,correct,418
sub-19,432,high_activation,incongruent,correct,342
sub-19,433,high_activation,congruent,correct,416
sub-19,434,high_activation,congruent,correct,332
sub-19,435,high_activation,incongruent,correct,410
sub-19,436,high_activation,congruent,correct,304
sub-19,437,high_activation,incongruent,correct,352
sub-19,438,high_activation,incongruent,correct,374
sub-19,439,high_activation,incongruent,correct,395
sub-19,440,high_activation,incongruent,correct,371
sub-19,441,high_activation,incongruent,correct,373
sub-19,442,high_activation,congruent,correct,397
sub-19,443,high_activation,incongruent,correct,436
sub-19,444,high_activation,incongruent,correct,346
sub-19,445,high_activation,incongruent,correct,413
sub-19,446,high_activation,incongruent,correct,440
sub-19,447,high_activation,congruent,correct,361
sub-19,448,high_activation,congruent,correct,310
sub-19,449,high_activation,congruent,correct,369
sub-19,450,high_activation,incongruent,correct,330
sub-19,451,high_activation,incongruent,correct,434
sub-19,452,high_activation,congruent,correct,385
sub-19,453,high_activation,incongruent,correct,418
sub-19,454,high_activation,congruent,correct,433
sub-19,455,high_activation,congruent,correct,359
sub-19,456,high_activation,congruent,correct,412
sub-19,457,high_activation,incongruent,correct,471
sub-19,458,high_activation,congruent,correct,320
sub-19,459,high_activation,congruent,correct,322
sub-19,460,high_activation,incongruent,correct,435
sub-19,461,high_activation,congruent,correct,342
sub-19,462,high_activation,incongruent,correct,389
sub-19,463,high_activation,incongruent,correct,363
sub-19,464,high_activation,congruent,correct,349
sub-19,465,high_activation,incongruent,correct,402
sub-19,466,high_activation,congruent,correct,274
sub-19,467,high_activation,congruent,correct,333
sub-19,468,high_activation,congruent,correct,300
sub-19,469,high_activation,incongruent,correct,446
sub-19,470,high_activation,congruent,correct,437
sub-19,471,high_activation,congruent,correct,334
sub-19,472,high_activation,congruent,correct,306
sub-19,473,high_activation,incongruent,correct,379
sub-19,474,high_activation,incongruent,correct,377
sub-19,475,high_activation,incongruent,correct,324
sub-19,476,high_activation,congruent,correct,383
sub-19,477,high_activation,incongruent,correct,402
sub-19,478,high_activation,congruent,correct,378
sub-19,479,high_activation,incongruent,incorrect,375
sub-19,480,high_activation,congruent,correct,515
sub-19,481,high_activation,congruent,correct,308
sub-19,482,high_activation,incongruent,correct,404
sub-19,483,high_activation,congruent,correct,284
sub-19,484,high_activation,incongruent,correct,321
sub-19,485,high_activation,congruent,correct,549
sub-19,486,high_activation,incongruent,correct,371
sub-19,487,high_activation,incongruent,correct,442
sub-19,488,high_activation,incongruent,correct,462
sub-19,489,high_activation,congruent,correct,430
sub-19,490,high_activation,incongruent,correct,364
sub-19,491,high_activation,incongruent,correct,390
sub-19,492,high_activation,incongruent,correct,388
sub-19,493,high_activation,incongruent,correct,423
sub-19,494,high_activation,incongruent,correct,366
sub-19,495,high_activation,congruent,correct,358
sub-19,496,high_activation,incongruent,correct,340
sub-19,497,high_activation,incongruent,correct,339
sub-19,498,high_activation,incongruent,correct,372
sub-19,499,high_activation,incongruent,correct,391
sub-19,500,high_activation,congruent,correct,390
sub-19,501,high_activation,incongruent,correct,381
sub-19,502,high_activation,congruent,correct,466
sub-19,503,high_activation,incongruent,correct,495
sub-19,504,high_activation,incongruent,correct,410
sub-19,505,high_activation,incongruent,correct,348
sub-19,506,high_activation,incongruent,correct,350
sub-19,507,high_activation,incongruent,correct,390
sub-19,508,high_activation,incongruent,correct,392
sub-19,509,high_activation,congruent,correct,426
sub-19,510,high_activation,congruent,correct,372
sub-19,511,high_activation,incongruent,correct,464
sub-19,512,high_activation,congruent,correct,588
sub-19,513,high_activation,incongruent,correct,376
sub-19,514,high_activation,incongruent,correct,406
sub-19,515,high_activation,congruent,correct,337
sub-19,516,high_activation,incongruent,incorrect,582
sub-19,517,high_activation,incongruent,correct,476
sub-19,518,high_activation,incongruent,correct,371
sub-19,519,high_activation,congruent,correct,344
sub-19,520,high_activation,congruent,correct,348
sub-19,521,high_activation,congruent,correct,370
sub-19,522,high_activation,congruent,correct,331
sub-19,523,high_activation,incongruent,correct,394
sub-19,524,high_activation,incongruent,correct,454
sub-19,525,high_activation,incongruent,correct,416
sub-19,526,high_activation,incongruent,correct,410
sub-19,527,high_activation,incongruent,correct,446
sub-19,528,high_activation,incongruent,correct,355
sub-19,529,high_activation,congruent,correct,398
sub-19,530,high_activation,congruent,correct,325
sub-19,531,high_activation,congruent,correct,305
sub-19,532,high_activation,incongruent,correct,397
sub-19,533,high_activation,congruent,correct,388
sub-19,534,high_activation,incongruent,correct,482
sub-19,535,high_activation,congruent,correct,317
sub-19,536,high_activation,incongruent,correct,413
sub-19,537,high_activation,incongruent,correct,384
sub-19,538,high_activation,incongruent,correct,384
sub-19,539,high_activation,incongruent,correct,350
sub-19,540,high_activation,congruent,correct,381
sub-19,541,high_activation,incongruent,correct,418
sub-19,542,high_activation,incongruent,correct,350
sub-19,543,high_activation,incongruent,correct,406
sub-19,544,high_activation,congruent,correct,386
sub-19,545,high_activation,incongruent,correct,410
sub-19,546,high_activation,congruent,correct,309
sub-19,547,high_activation,congruent,correct,567
sub-19,548,high_activation,congruent,correct,309
sub-19,549,high_activation,congruent,correct,332
sub-19,550,high_activation,congruent,correct,288
sub-19,551,high_activation,congruent,correct,365
sub-19,552,high_activation,congruent,correct,382
sub-19,553,high_activation,congruent,correct,343
sub-19,554,high_activation,congruent,correct,398
sub-19,555,high_activation,incongruent,correct,392
sub-19,556,high_activation,congruent,correct,357
sub-19,557,high_activation,incongruent,correct,512
sub-19,558,high_activation,congruent,correct,376
sub-19,559,high_activation,incongruent,correct,468
sub-19,560,high_activation,incongruent,correct,355
sub-19,561,high_activation,incongruent,correct,391
sub-19,562,high_activation,congruent,correct,364
sub-19,563,high_activation,congruent,correct,415
sub-19,564,high_activation,congruent,correct,315
sub-19,565,high_activation,congruent,correct,326
sub-19,566,high_activation,incongruent,correct,388
sub-19,567,high_activation,congruent,correct,444
sub-19,568,high_activation,incongruent,correct,333
sub-19,569,high_activation,congruent,correct,368
sub-19,570,high_activation,incongruent,correct,389
sub-19,571,high_activation,congruent,correct,321
sub-19,572,high_activation,incongruent,correct,373
sub-19,573,high_activation,incongruent,correct,404
sub-19,574,high_activation,incongruent,correct,480
sub-19,575,high_activation,incongruent,correct,412
sub-19,576,high_activation,congruent,correct,339
sub-19,577,high_activation,congruent,correct,373
sub-19,578,high_activation,congruent,correct,427
sub-19,579,high_activation,incongruent,correct,388
sub-19,580,high_activation,incongruent,correct,380
sub-19,581,high_activation,congruent,correct,314
sub-19,582,high_activation,incongruent,correct,372
sub-19,583,high_activation,congruent,correct,404
sub-19,584,high_activation,congruent,correct,362
sub-19,585,high_activation,congruent,correct,373
sub-19,586,high_activation,incongruent,correct,322
sub-19,587,high_activation,incongruent,correct,391
sub-19,588,high_activation,incongruent,correct,352
sub-19,589,high_activation,incongruent,correct,372
sub-19,590,high_activation,incongruent,correct,355
sub-19,591,high_activation,congruent,correct,320
sub-19,592,high_activation,incongruent,correct,382
sub-19,593,high_activation,incongruent,correct,393
sub-19,594,high_activation,congruent,correct,341
sub-19,595,high_activation,incongruent,correct,307
sub-19,596,high_activation,incongruent,correct,404
sub-19,597,high_activation,incongruent,correct,374
sub-19,598,high_activation,congruent,correct,381
sub-19,599,high_activation,congruent,correct,481
sub-19,600,high_activation,incongruent,correct,272
sub-19,601,high_activation,congruent,correct,371
sub-19,602,high_activation,incongruent,correct,317
sub-19,603,high_activation,incongruent,correct,392
sub-19,604,high_activation,incongruent,correct,340
sub-19,605,high_activation,congruent,correct,369
sub-19,606,high_activation,congruent,correct,361
sub-19,607,high_activation,congruent,correct,364
sub-19,608,high_activation,incongruent,correct,399
sub-19,609,high_activation,congruent,correct,337
sub-19,610,high_activation,congruent,correct,310
sub-19,611,high_activation,congruent,correct,330
sub-19,612,high_activation,incongruent,correct,337
sub-19,613,high_activation,congruent,correct,366
sub-19,614,high_activation,congruent,correct,348
sub-19,615,high_activation,incongruent,correct,343
sub-19,616,high_activation,congruent,correct,375
sub-19,617,high_activation,congruent,correct,317
sub-19,618,high_activation,congruent,correct,481
sub-19,619,high_activation,incongruent,correct,431
sub-19,620,high_activation,congruent,correct,304
sub-19,621,high_activation,congruent,correct,291
sub-19,622,high_activation,incongruent,incorrect,255
sub-19,623,high_activation,congruent,correct,302
sub-19,624,high_activation,congruent,correct,329
sub-19,625,high_activation,incongruent,correct,357
sub-19,626,high_activation,congruent,correct,286
sub-19,627,high_activation,incongruent,correct,449
sub-19,628,high_activation,incongruent,correct,386
sub-19,629,high_activation,incongruent,correct,383
sub-19,630,high_activation,incongruent,correct,358
sub-19,631,high_activation,incongruent,correct,362
sub-19,632,high_activation,incongruent,correct,439
sub-19,633,high_activation,congruent,correct,435
sub-19,634,high_activation,incongruent,correct,416
sub-19,635,high_activation,congruent,correct,361
sub-19,636,high_activation,incongruent,correct,377
sub-19,637,high_activation,congruent,correct,421
sub-19,638,high_activation,congruent,correct,377
sub-19,639,high_activation,incongruent,correct,409
sub-19,640,high_activation,congruent,correct,435
sub-19,641,high_activation,congruent,correct,403
sub-19,642,high_activation,incongruent,correct,425
sub-19,643,high_activation,incongruent,correct,403
sub-19,644,high_activation,congruent,correct,363
sub-19,645,high_activation,incongruent,correct,362
sub-19,646,high_activation,congruent,correct,354
sub-19,647,high_activation,incongruent,correct,460
sub-19,648,high_activation,incongruent,correct,364
sub-19,649,high_activation,incongruent,correct,404
sub-19,650,high_activation,congruent,correct,412
sub-19,651,high_activation,incongruent,correct,517
sub-19,652,high_activation,incongruent,correct,275
sub-19,653,high_activation,congruent,correct,383
sub-19,654,high_activation,congruent,correct,336
sub-19,655,high_activation,incongruent,correct,372
sub-19,656,high_activation,incongruent,correct,364
sub-19,657,high_activation,congruent,correct,343
sub-19,658,high_activation,incongruent,incorrect,296
sub-19,659,high_activation,incongruent,correct,354
sub-19,660,high_activation,congruent,correct,442
sub-19,661,high_activation,congruent,correct,342
sub-19,662,high_activation,incongruent,correct,426
sub-19,663,high_activation,incongruent,correct,425
sub-19,664,high_activation,congruent,correct,319
sub-19,665,high_activation,incongruent,correct,416
sub-19,666,high_activation,incongruent,correct,486
sub-19,667,high_activation,incongruent,correct,410
sub-19,668,high_activation,incongruent,correct,329
sub-19,669,high_activation,incongruent,correct,427
sub-19,670,high_activation,incongruent,correct,364
sub-19,671,high_activation,incongruent,correct,382
sub-19,672,high_activation,congruent,correct,358
sub-19,673,high_activation,incongruent,correct,351
sub-19,674,high_activation,incongruent,correct,554
sub-19,675,high_activation,congruent,correct,405
sub-19,676,high_activation,incongruent,correct,451
sub-19,677,high_activation,incongruent,correct,342
sub-19,678,high_activation,congruent,correct,423
sub-19,679,high_activation,congruent,correct,299
sub-19,680,high_activation,congruent,correct,366
sub-19,681,high_activation,incongruent,correct,437
sub-19,682,high_activation,congruent,correct,350
sub-19,683,high_activation,congruent,correct,317
sub-19,684,high_activation,congruent,correct,349
sub-19,685,high_activation,congruent,correct,406
sub-19,686,high_activation,incongruent,correct,329
sub-19,687,high_activation,incongruent,correct,356
sub-19,688,high_activation,congruent,correct,322
sub-19,689,high_activation,incongruent,correct,412
sub-19,690,high_activation,incongruent,correct,343
sub-19,691,high_activation,incongruent,correct,380
sub-19,692,high_activation,congruent,correct,348
sub-19,693,high_activation,congruent,correct,364
sub-19,694,high_activation,congruent,correct,381
sub-19,695,high_activation,congruent,correct,353
sub-19,696,high_activation,congruent,correct,329
sub-19,697,high_activation,incongruent,correct,409
sub-19,698,high_activation,incongruent,correct,340
sub-19,699,high_activation,congruent,correct,346
sub-19,700,high_activation,congruent,correct,398
sub-19,701,high_activation,congruent,incorrect,427
sub-19,702,high_activation,incongruent,correct,444
sub-19,703,high_activation,congruent,correct,554
sub-19,704,high_activation,congruent,correct,330
sub-19,705,high_activation,incongruent,correct,407
sub-19,706,high_activation,incongruent,correct,360
sub-19,707,high_activation,congruent,correct,524
sub-19,708,high_activation,incongruent,correct,385
sub-19,709,high_activation,congruent,correct,380
sub-19,710,high_activation,incongruent,correct,381
sub-19,711,high_activation,congruent,correct,328
sub-19,712,high_activation,congruent,correct,351
sub-19,713,high_activation,incongruent,correct,365
sub-19,714,high_activation,incongruent,correct,399
sub-19,715,high_activation,incongruent,correct,397
sub-19,716,high_activation,congruent,correct,334
sub-19,717,high_activation,congruent,correct,413
sub-19,718,high_activation,congruent,correct,330
sub-19,719,high_activation,congruent,correct,346
sub-19,720,high_activation,incongruent,correct,348
sub-19,721,high_activation,congruent,correct,358
sub-19,722,high_activation,incongruent,correct,426
sub-19,723,high_activation,congruent,correct,347
sub-19,724,high_activation,congruent,correct,388
sub-19,725,high_activation,incongruent,correct,389
sub-19,726,high_activation,incongruent,correct,368
sub-19,727,high_activation,congruent,correct,326
sub-19,728,high_activation,incongruent,correct,366
sub-19,729,high_activation,incongruent,correct,372
sub-19,730,high_activation,congruent,correct,340
sub-19,731,high_activation,congruent,correct,308
sub-19,732,high_activation,congruent,correct,390
sub-19,733,high_activation,incongruent,correct,430
sub-19,734,high_activation,congruent,correct,354
sub-19,735,high_activation,incongruent,correct,544
sub-19,736,high_activation,congruent,correct,464
sub-19,737,high_activation,congruent,correct,446
sub-19,738,high_activation,congruent,correct,349
sub-19,739,high_activation,congruent,correct,388
sub-19,740,high_activation,incongruent,correct,422
sub-19,741,high_activation,incongruent,correct,330
sub-19,742,high_activation,incongruent,correct,410
sub-19,743,high_activation,incongruent,correct,383
sub-19,744,high_activation,congruent,correct,436
sub-19,745,high_activation,congruent,correct,485
sub-19,746,high_activation,congruent,correct,480
sub-19,747,high_activation,incongruent,correct,446
sub-19,748,high_activation,congruent,correct,374
sub-19,749,high_activation,incongruent,correct,504
sub-19,750,high_activation,congruent,correct,332
sub-19,751,high_activation,congruent,correct,356
sub-19,752,high_activation,incongruent,correct,348
sub-19,753,high_activation,incongruent,correct,445
sub-19,754,high_activation,congruent,correct,535
sub-19,755,high_activation,incongruent,correct,340
sub-19,756,high_activation,incongruent,correct,356
sub-19,757,high_activation,congruent,correct,367
sub-19,758,high_activation,incongruent,correct,406
sub-19,759,high_activation,congruent,correct,325
sub-19,760,high_activation,congruent,correct,328
sub-19,761,high_activation,congruent,correct,369
sub-19,762,high_activation,congruent,correct,332
sub-19,763,high_activation,congruent,correct,392
sub-19,764,high_activation,incongruent,correct,412
sub-19,765,high_activation,congruent,correct,336
sub-19,766,high_activation,congruent,correct,400
sub-19,767,high_activation,congruent,correct,329
sub-19,768,high_activation,congruent,correct,388
sub-19,769,high_activation,congruent,correct,381
sub-19,770,high_activation,congruent,correct,296
sub-19,771,high_activation,incongruent,correct,359
sub-19,772,high_activation,incongruent,correct,300
sub-19,773,high_activation,incongruent,correct,368
sub-19,774,high_activation,incongruent,correct,443
sub-19,775,high_activation,incongruent,correct,325
sub-19,776,high_activation,incongruent,correct,328
sub-19,777,high_activation,congruent,correct,346
sub-19,778,high_activation,congruent,correct,325
sub-19,779,high_activation,incongruent,correct,393
sub-19,780,high_activation,incongruent,correct,377
sub-19,781,high_activation,congruent,correct,373
sub-19,782,high_activation,congruent,correct,331
sub-19,783,high_activation,incongruent,correct,410
sub-19,784,high_activation,congruent,correct,432
sub-19,785,high_activation,congruent,correct,294
sub-19,786,high_activation,congruent,correct,362
sub-19,787,high_activation,congruent,correct,326
sub-19,788,high_activation,incongruent,correct,355
sub-19,789,high_activation,incongruent,correct,385
sub-19,790,high_activation,congruent,correct,333
sub-19,791,high_activation,incongruent,correct,284
sub-19,792,high_activation,incongruent,correct,414
sub-19,793,high_activation,congruent,correct,347
sub-19,794,high_activation,incongruent,incorrect,415
sub-19,795,high_activation,incongruent,correct,340
sub-19,796,high_activation,incongruent,correct,322
sub-19,797,high_activation,incongruent,correct,346
sub-19,798,high_activation,congruent,correct,389
sub-19,799,high_activation,incongruent,correct,382
sub-19,800,high_activation,congruent,correct,466
sub-19,801,high_activation,incongruent,correct,379
sub-19,802,high_activation,incongruent,correct,360
sub-19,803,high_activation,incongruent,correct,358
sub-19,804,high_activation,incongruent,correct,318
sub-19,805,high_activation,congruent,correct,388
sub-19,806,high_activation,congruent,correct,584
sub-19,807,high_activation,congruent,correct,318
sub-19,808,high_activation,congruent,correct,402
sub-19,809,high_activation,congruent,correct,318
sub-19,810,high_activation,congruent,correct,322
sub-19,811,high_activation,congruent,correct,299
sub-19,812,high_activation,congruent,correct,394
sub-19,813,high_activation,congruent,correct,309
sub-19,814,high_activation,incongruent,correct,536
sub-19,815,high_activation,congruent,incorrect,391
sub-19,816,high_activation,congruent,correct,369
sub-19,817,high_activation,incongruent,correct,446
sub-19,818,high_activation,congruent,correct,350
sub-19,819,high_activation,congruent,correct,355
sub-19,820,high_activation,incongruent,correct,332
sub-19,821,high_activation,congruent,correct,320
sub-19,822,high_activation,incongruent,correct,361
sub-19,823,high_activation,incongruent,correct,289
sub-19,824,high_activation,incongruent,correct,437
sub-19,825,high_activation,incongruent,correct,388
sub-19,826,high_activation,incongruent,correct,379
sub-19,827,high_activation,congruent,correct,405
sub-19,828,high_activation,incongruent,correct,446
sub-19,829,high_activation,incongruent,correct,408
sub-19,830,high_activation,congruent,correct,358
sub-19,831,high_activation,incongruent,correct,334
sub-19,832,high_activation,congruent,correct,437
sub-19,833,high_activation,congruent,correct,329
sub-19,834,high_activation,congruent,correct,318
sub-19,835,high_activation,incongruent,correct,370
sub-19,836,high_activation,congruent,correct,369
sub-19,1,low_activation,incongruent,correct,547
sub-19,2,low_activation,congruent,correct,410
sub-19,3,low_activation,congruent,correct,444
sub-19,4,low_activation,congruent,correct,425
sub-19,5,low_activation,congruent,correct,454
sub-19,6,low_activation,incongruent,correct,512
sub-19,7,low_activation,incongruent,correct,448
sub-19,8,low_activation,incongruent,correct,384
sub-19,9,low_activation,congruent,correct,412
sub-19,10,low_activation,congruent,correct,426
sub-19,11,low_activation,congruent,correct,362
sub-19,12,low_activation,incongruent,correct,366
sub-19,13,low_activation,incongruent,correct,351
sub-19,14,low_activation,congruent,correct,390
sub-19,15,low_activation,incongruent,correct,429
sub-19,16,low_activation,incongruent,correct,428
sub-19,17,low_activation,incongruent,correct,430
sub-19,18,low_activation,congruent,correct,386
sub-19,19,low_activation,incongruent,correct,412
sub-19,20,low_activation,congruent,correct,409
sub-19,21,low_activation,incongruent,correct,516
sub-19,22,low_activation,congruent,correct,439
sub-19,23,low_activation,incongruent,correct,428
sub-19,24,low_activation,incongruent,correct,414
sub-19,25,low_activation,congruent,correct,485
sub-19,26,low_activation,congruent,correct,370
sub-19,27,low_activation,congruent,correct,458
sub-19,28,low_activation,incongruent,correct,493
sub-19,29,low_activation,congruent,correct,435
sub-19,30,low_activation,incongruent,correct,429
sub-19,31,low_activation,congruent,correct,480
sub-19,32,low_activation,congruent,correct,350
sub-19,33,low_activation,congruent,correct,394
sub-19,34,low_activation,incongruent,correct,524
sub-19,35,low_activation,incongruent,correct,485
sub-19,36,low_activation,incongruent,correct,395
sub-19,37,low_activation,congruent,correct,370
sub-19,38,low_activation,congruent,correct,381
sub-19,39,low_activation,incongruent,correct,417
sub-19,40,low_activation,incongruent,correct,408
sub-19,41,low_activation,incongruent,correct,368
sub-19,42,low_activation,incongruent,correct,356
sub-19,43,low_activation,congruent,correct,365
sub-19,44,low_activation,incongruent,correct,501
sub-19,45,low_activation,incongruent,correct,430
sub-19,46,low_activation,incongruent,correct,412
sub-19,47,low_activation,congruent,correct,428
sub-19,48,low_activation,incongruent,correct,542
sub-19,49,low_activation,incongruent,correct,440
sub-19,50,low_activation,congruent,correct,352
sub-19,51,low_activation,congruent,correct,540
sub-19,52,low_activation,incongruent,correct,415
sub-19,53,low_activation,incongruent,correct,426
sub-19,54,low_activation,incongruent,correct,426
sub-19,55,low_activation,congruent,correct,401
sub-19,56,low_activation,incongruent,correct,375
sub-19,57,low_activation,congruent,correct,403
sub-19,58,low_activation,incongruent,correct,484
sub-19,59,low_activation,incongruent,correct,442
sub-19,60,low_activation,incongruent,correct,441
sub-19,61,low_activation,incongruent,correct,420
sub-19,62,low_activation,congruent,correct,376
sub-19,63,low_activation,incongruent,correct,457
sub-19,64,low_activation,incongruent,correct,428
sub-19,65,low_activation,incongruent,correct,434
sub-19,66,low_activation,congruent,correct,386
sub-19,67,low_activation,incongruent,correct,450
sub-19,68,low_activation,incongruent,correct,414
sub-19,69,low_activation,congruent,correct,416
sub-19,70,low_activation,incongruent,correct,478
sub-19,71,low_activation,congruent,correct,397
sub-19,72,low_activation,incongruent,correct,452
sub-19,73,low_activation,incongruent,correct,386
sub-19,74,low_activation,congruent,correct,425
sub-19,75,low_activation,incongruent,correct,494
sub-19,76,low_activation,congruent,correct,380
sub-19,77,low_activation,congruent,correct,461
sub-19,78,low_activation,congruent,correct,334
sub-19,79,low_activation,congruent,correct,386
sub-19,80,low_activation,congruent,correct,365
sub-19,81,low_activation,congruent,correct,441
sub-19,82,low_activation,congruent,correct,322
sub-19,83,low_activation,congruent,correct,330
sub-19,84,low_activation,congruent,correct,294
sub-19,85,low_activation,congruent,correct,331
sub-19,86,low_activation,congruent,correct,350
sub-19,87,low_activation,congruent,correct,314
sub-19,88,low_activation,congruent,correct,326
sub-19,89,low_activation,incongruent,correct,425
sub-19,90,low_activation,incongruent,correct,402
sub-19,91,low_activation,congruent,correct,418
sub-19,92,low_activation,congruent,correct,308
sub-19,93,low_activation,congruent,correct,364
sub-19,94,low_activation,congruent,correct,272
sub-19,95,low_activation,incongruent,correct,449
sub-19,96,low_activation,incongruent,correct,398
sub-19,97,low_activation,congruent,correct,393
sub-19,98,low_activation,incongruent,correct,475
sub-19,99,low_activation,incongruent,correct,419
sub-19,100,low_activation,congruent,correct,366
sub-19,101,low_activation,congruent,correct,360
sub-19,102,low_activation,incongruent,correct,424
sub-19,103,low_activation,congruent,correct,321
sub-19,104,low_activation,incongruent,incorrect,382
sub-19,105,low_activation,incongruent,correct,519
sub-19,106,low_activation,incongruent,correct,432
sub-19,107,low_activation,incongruent,correct,467
sub-19,108,low_activation,incongruent,correct,464
sub-19,109,low_activation,congruent,correct,494
sub-19,110,low_activation,congruent,correct,404
sub-19,111,low_activation,congruent,correct,341
sub-19,112,low_activation,congruent,correct,350
sub-19,113,low_activation,congruent,correct,378
sub-19,114,low_activation,congruent,correct,386
sub-19,115,low_activation,congruent,correct,340
sub-19,116,low_activation,incongruent,correct,473
sub-19,117,low_activation,congruent,correct,440
sub-19,118,low_activation,incongruent,correct,470
sub-19,119,low_activation,congruent,correct,414
sub-19,120,low_activation,incongruent,incorrect,323
sub-19,121,low_activation,incongruent,correct,398
sub-19,122,low_activation,incongruent,correct,428
sub-19,123,low_activation,incongruent,correct,368
sub-19,124,low_activation,congruent,correct,327
sub-19,125,low_activation,congruent,correct,374
sub-19,126,low_activation,congruent,correct,444
sub-19,127,low_activation,congruent,correct,318
sub-19,128,low_activation,incongruent,correct,512
sub-19,129,low_activation,incongruent,correct,490
sub-19,130,low_activation,incongruent,correct,664
sub-19,131,low_activation,incongruent,correct,390
sub-19,132,low_activation,congruent,correct,462
sub-19,133,low_activation,congruent,correct,407
sub-19,134,low_activation,incongruent,correct,456
sub-19,135,low_activation,congruent,correct,384
sub-19,136,low_activation,incongruent,correct,483
sub-19,137,low_activation,congruent,correct,405
sub-19,138,low_activation,incongruent,correct,520
sub-19,139,low_activation,incongruent,correct,501
sub-19,140,low_activation,incongruent,correct,542
sub-19,141,low_activation,incongruent,correct,334
sub-19,142,low_activation,congruent,correct,392
sub-19,143,low_activation,congruent,correct,401
sub-19,144,low_activation,incongruent,correct,399
sub-19,145,low_activation,incongruent,correct,381
sub-19,146,low_activation,congruent,correct,410
sub-19,147,low_activation,congruent,correct,373
sub-19,148,low_activation,congruent,correct,368
sub-19,149,low_activation,congruent,correct,449
sub-19,150,low_activation,incongruent,correct,463
sub-19,151,low_activation,incongruent,correct,496
sub-19,152,low_activation,congruent,correct,452
sub-19,153,low_activation,incongruent,correct,428
sub-19,154,low_activation,congruent,correct,341
sub-19,155,low_activation,congruent,,
sub-19,156,low_activation,congruent,correct,436
sub-19,157,low_activation,congruent,correct,381
sub-19,158,low_activation,congruent,,
sub-19,159,low_activation,congruent,correct,405
sub-19,160,low_activation,congruent,correct,361
sub-19,161,low_activation,congruent,,
sub-19,162,low_activation,congruent,,
sub-19,163,low_activation,congruent,correct,326
sub-19,164,low_activation,congruent,correct,506
sub-19,165,low_activation,incongruent,correct,561
sub-19,166,low_activation,congruent,correct,438
sub-19,167,low_activation,incongruent,correct,414
sub-19,168,low_activation,incongruent,correct,441
sub-19,169,low_activation,incongruent,correct,470
sub-19,170,low_activation,congruent,correct,406
sub-19,171,low_activation,incongruent,correct,477
sub-19,172,low_activation,incongruent,correct,332
sub-19,173,low_activation,congruent,correct,381
sub-19,174,low_activation,incongruent,correct,456
sub-19,175,low_activation,congruent,correct,434
sub-19,176,low_activation,incongruent,correct,468
sub-19,177,low_activation,congruent,correct,416
sub-19,178,low_activation,congruent,correct,468
sub-19,179,low_activation,incongruent,correct,484
sub-19,180,low_activation,congruent,correct,479
sub-19,181,low_activation,congruent,correct,398
sub-19,182,low_activation,congruent,correct,606
sub-19,183,low_activation,incongruent,correct,528
sub-19,184,low_activation,congruent,correct,428
sub-19,185,low_activation,congruent,correct,321
sub-19,186,low_activation,congruent,correct,366
sub-19,187,low_activation,congruent,correct,380
sub-19,188,low_activation,incongruent,incorrect,303
sub-19,189,low_activation,congruent,correct,448
sub-19,190,low_activation,congruent,correct,353
sub-19,191,low_activation,congruent,correct,400
sub-19,192,low_activation,incongruent,correct,524
sub-19,193,low_activation,congruent,correct,426
sub-19,194,low_activation,incongruent,correct,503
sub-19,195,low_activation,incongruent,correct,513
sub-19,196,low_activation,congruent,correct,422
sub-19,197,low_activation,incongruent,correct,481
sub-19,198,low_activation,incongruent,correct,486
sub-19,199,low_activation,incongruent,correct,471
sub-19,200,low_activation,congruent,correct,428
sub-19,201,low_activation,congruent,correct,428
sub-19,202,low_activation,congruent,correct,396
sub-19,203,low_activation,incongruent,correct,458
sub-19,204,low_activation,incongruent,correct,404
sub-19,205,low_activation,congruent,correct,417
sub-19,206,low_activation,congruent,correct,405
sub-19,207,low_activation,incongruent,correct,517
sub-19,208,low_activation,incongruent,correct,325
sub-19,209,low_activation,congruent,correct,486
sub-19,210,low_activation,incongruent,correct,499
sub-19,211,low_activation,congruent,correct,437
sub-19,212,low_activation,incongruent,correct,461
sub-19,213,low_activation,incongruent,correct,363
sub-19,214,low_activation,congruent,correct,304
sub-19,215,low_activation,congruent,correct,411
sub-19,216,low_activation,incongruent,correct,482
sub-19,217,low_activation,congruent,correct,370
sub-19,218,low_activation,congruent,correct,336
sub-19,219,low_activation,congruent,correct,439
sub-19,220,low_activation,congruent,correct,324
sub-19,221,low_activation,congruent,correct,307
sub-19,222,low_activation,congruent,correct,327
sub-19,223,low_activation,congruent,correct,386
sub-19,224,low_activation,congruent,correct,330
sub-19,225,low_activation,incongruent,incorrect,294
sub-19,226,low_activation,incongruent,correct,455
sub-19,227,low_activation,incongruent,correct,540
sub-19,228,low_activation,incongruent,correct,547
sub-19,229,low_activation,congruent,correct,388
sub-19,230,low_activation,congruent,correct,332
sub-19,231,low_activation,incongruent,correct,413
sub-19,232,low_activation,congruent,correct,454
sub-19,233,low_activation,congruent,correct,378
sub-19,234,low_activation,incongruent,correct,423
sub-19,235,low_activation,congruent,correct,424
sub-19,236,low_activation,congruent,correct,398
sub-19,237,low_activation,congruent,correct,402
sub-19,238,low_activation,incongruent,correct,389
sub-19,239,low_activation,incongruent,correct,451
sub-19,240,low_activation,congruent,correct,389
sub-19,241,low_activation,congruent,correct,407
sub-19,242,low_activation,congruent,correct,450
sub-19,243,low_activation,congruent,correct,416
sub-19,244,low_activation,incongruent,correct,838
sub-19,245,low_activation,congruent,correct,396
sub-19,246,low_activation,incongruent,correct,412
sub-19,247,low_activation,congruent,correct,373
sub-19,248,low_activation,congruent,correct,370
sub-19,249,low_activation,congruent,correct,342
sub-19,250,low_activation,incongruent,correct,481
sub-19,251,low_activation,congruent,,
sub-19,252,low_activation,congruent,,
sub-19,253,low_activation,incongruent,correct,487
sub-19,254,low_activation,incongruent,correct,350
sub-19,255,low_activation,congruent,correct,542
sub-19,256,low_activation,incongruent,correct,456
sub-19,257,low_activation,congruent,correct,548
sub-19,258,low_activation,incongruent,correct,501
sub-19,259,low_activation,congruent,,
sub-19,260,low_activation,congruent,correct,453
sub-19,261,low_activation,congruent,correct,455
sub-19,262,low_activation,incongruent,correct,419
sub-19,263,low_activation,incongruent,correct,471
sub-19,264,low_activation,congruent,correct,377
sub-19,265,low_activation,incongruent,correct,471
sub-19,266,low_activation,incongruent,correct,410
sub-19,267,low_activation,incongruent,correct,390
sub-19,268,low_activation,congruent,correct,408
sub-19,269,low_activation,congruent,correct,395
sub-19,270,low_activation,incongruent,correct,546
sub-19,271,low_activation,congruent,correct,447
sub-19,272,low_activation,incongruent,correct,551
sub-19,273,low_activation,incongruent,correct,451
sub-19,274,low_activation,congruent,correct,442
sub-19,275,low_activation,congruent,correct,374
sub-19,276,low_activation,incongruent,correct,434
sub-19,277,low_activation,congruent,correct,421
sub-19,278,low_activation,congruent,correct,325
sub-19,279,low_activation,congruent,,
sub-19,280,low_activation,congruent,correct,330
sub-19,281,low_activation,congruent,correct,347
sub-19,282,low_activation,congruent,correct,329
sub-19,283,low_activation,incongruent,correct,442
sub-19,284,low_activation,congruent,correct,410
sub-19,285,low_activation,incongruent,correct,541
sub-19,286,low_activation,congruent,correct,458
sub-19,287,low_activation,incongruent,correct,468
sub-19,288,low_activation,incongruent,correct,498
sub-19,289,low_activation,congruent,correct,480
sub-19,290,low_activation,congruent,correct,546
sub-19,291,low_activation,incongruent,correct,420
sub-19,292,low_activation,congruent,correct,411
sub-19,293,low_activation,incongruent,correct,477
sub-19,294,low_activation,congruent,correct,360
sub-19,295,low_activation,incongruent,incorrect,729
sub-19,296,low_activation,congruent,correct,471
sub-19,297,low_activation,incongruent,correct,468
sub-19,298,low_activation,incongruent,correct,489
sub-19,299,low_activation,incongruent,correct,378
sub-19,300,low_activation,incongruent,correct,503
sub-19,301,low_activation,incongruent,,
sub-19,302,low_activation,congruent,,
sub-19,303,low_activation,congruent,correct,470
sub-19,304,low_activation,incongruent,,
sub-19,305,low_activation,congruent,correct,446
sub-19,306,low_activation,congruent,correct,502
sub-19,307,low_activation,congruent,,
sub-19,308,low_activation,congruent,correct,533
sub-19,309,low_activation,incongruent,,
sub-19,310,low_activation,congruent,,
sub-19,311,low_activation,incongruent,correct,490
sub-19,312,low_activation,incongruent,correct,499
sub-19,313,low_activation,congruent,correct,381
sub-19,314,low_activation,congruent,,
sub-19,315,low_activation,congruent,correct,421
sub-19,316,low_activation,incongruent,,
sub-19,317,low_activation,incongruent,,
sub-19,318,low_activation,incongruent,,
sub-19,319,low_activation,congruent,,
sub-19,320,low_activation,incongruent,,
sub-19,321,low_activation,congruent,correct,543
sub-19,322,low_activation,incongruent,,
sub-19,323,low_activation,congruent,,
sub-19,324,low_activation,incongruent,correct,562
sub-19,325,low_activation,congruent,,
sub-19,326,low_activation,incongruent,correct,479
sub-19,327,low_activation,congruent,correct,439
sub-19,328,low_activation,congruent,correct,523
sub-19,329,low_activation,congruent,correct,421
sub-19,330,low_activation,incongruent,,
sub-19,331,low_activation,incongruent,correct,537
sub-19,332,low_activation,congruent,correct,426
sub-19,333,low_activation,incongruent,correct,414
sub-19,334,low_activation,incongruent,correct,374
sub-19,335,low_activation,congruent,correct,392
sub-19,336,low_activation,congruent,correct,366
sub-19,337,low_activation,incongruent,,
sub-19,338,low_activation,congruent,,
sub-19,339,low_activation,incongruent,correct,513
sub-19,340,low_activation,congruent,correct,436
sub-19,341,low_activation,incongruent,,
sub-19,342,low_activation,incongruent,,
sub-19,343,low_activation,incongruent,,
sub-19,344,low_activation,congruent,,
sub-19,345,low_activation,incongruent,correct,470
sub-19,346,low_activation,incongruent,correct,487
sub-19,347,low_activation,congruent,correct,426
sub-19,348,low_activation,congruent,,
sub-19,349,low_activation,incongruent,,
sub-19,350,low_activation,incongruent,correct,502
sub-19,351,low_activation,congruent,correct,438
sub-19,352,low_activation,congruent,correct,367
sub-19,353,low_activation,incongruent,correct,457
sub-19,354,low_activation,congruent,correct,368
sub-19,355,low_activation,incongruent,,
sub-19,356,low_activation,incongruent,,
sub-19,357,low_activation,incongruent,correct,518
sub-19,358,low_activation,incongruent,correct,581
sub-19,359,low_activation,incongruent,correct,482
sub-19,360,low_activation,incongruent,correct,454
sub-19,361,low_activation,congruent,correct,424
sub-19,362,low_activation,congruent,correct,452
sub-19,363,low_activation,congruent,correct,442
sub-19,364,low_activation,incongruent,correct,554
sub-19,365,low_activation,congruent,correct,438
sub-19,366,low_activation,incongruent,correct,466
sub-19,367,low_activation,incongruent,correct,475
sub-19,368,low_activation,congruent,,
sub-19,369,low_activation,incongruent,correct,536
sub-19,370,low_activation,congruent,correct,432
sub-19,371,low_activation,incongruent,correct,449
sub-19,372,low_activation,congruent,correct,384
sub-19,373,low_activation,congruent,correct,356
sub-19,374,low_activation,incongruent,correct,459
sub-19,375,low_activation,incongruent,,
sub-19,376,low_activation,incongruent,correct,433
sub-19,377,low_activation,incongruent,,
sub-19,378,low_activation,incongruent,correct,514
sub-19,379,low_activation,congruent,correct,534
sub-19,380,low_activation,congruent,correct,395
sub-19,381,low_activation,incongruent,correct,476
sub-19,382,low_activation,incongruent,correct,442
sub-19,383,low_activation,congruent,correct,537
sub-19,384,low_activation,congruent,correct,376
sub-19,385,low_activation,congruent,correct,426
sub-19,386,low_activation,congruent,correct,418
sub-19,387,low_activation,incongruent,correct,414
sub-19,388,low_activation,congruent,correct,441
sub-19,389,low_activation,incongruent,incorrect,338
sub-19,390,low_activation,congruent,correct,467
sub-19,391,low_activation,congruent,,
sub-19,392,low_activation,incongruent,correct,477
sub-19,393,low_activation,congruent,correct,518
sub-19,394,low_activation,incongruent,correct,497
sub-19,395,low_activation,congruent,correct,406
sub-19,396,low_activation,congruent,correct,362
sub-19,397,low_activation,congruent,correct,373
sub-19,398,low_activation,congruent,correct,378
sub-19,399,low_activation,congruent,correct,358
sub-19,400,low_activation,congruent,correct,400
sub-19,401,low_activation,incongruent,incorrect,538
sub-19,402,low_activation,congruent,correct,473
sub-19,403,low_activation,incongruent,correct,443
sub-19,404,low_activation,congruent,correct,401
sub-19,405,low_activation,congruent,correct,458
sub-19,406,low_activation,incongruent,correct,494
sub-19,407,low_activation,incongruent,correct,472
sub-19,408,low_activation,congruent,correct,415
sub-19,409,low_activation,congruent,correct,458
sub-19,410,low_activation,congruent,correct,482
sub-19,411,low_activation,congruent,correct,461
sub-19,412,low_activation,congruent,correct,478
sub-19,413,low_activation,incongruent,correct,478
sub-19,414,low_activation,incongruent,correct,456
sub-19,415,low_activation,incongruent,correct,407
sub-19,416,low_activation,incongruent,correct,469
sub-19,417,low_activation,congruent,correct,524
sub-19,418,low_activation,incongruent,correct,454
sub-19,419,low_activation,congruent,correct,386
sub-19,420,low_activation,congruent,correct,521
sub-19,421,low_activation,congruent,correct,371
sub-19,422,low_activation,incongruent,correct,436
sub-19,423,low_activation,congruent,correct,423
sub-19,424,low_activation,incongruent,correct,496
sub-19,425,low_activation,congruent,correct,435
sub-19,426,low_activation,congruent,correct,370
sub-19,427,low_activation,incongruent,correct,408
sub-19,428,low_activation,incongruent,correct,414
sub-19,429,low_activation,incongruent,correct,489
sub-19,430,low_activation,congruent,correct,395
sub-19,431,low_activation,incongruent,correct,412
sub-19,432,low_activation,incongruent,correct,366
sub-19,433,low_activation,incongruent,correct,432
sub-19,434,low_activation,congruent,correct,441
sub-19,435,low_activation,incongruent,correct,404
sub-19,436,low_activation,incongruent,correct,332
sub-19,437,low_activation,incongruent,correct,413
sub-19,438,low_activation,congruent,correct,422
sub-19,439,low_activation,incongruent,correct,387
sub-19,440,low_activation,incongruent,,
sub-19,441,low_activation,incongruent,correct,466
sub-19,442,low_activation,congruent,correct,458
sub-19,443,low_activation,incongruent,correct,385
sub-19,444,low_activation,incongruent,correct,439
sub-19,445,low_activation,congruent,correct,432
sub-19,446,low_activation,congruent,correct,390
sub-19,447,low_activation,incongruent,correct,418
sub-19,448,low_activation,incongruent,correct,412
sub-19,449,low_activation,incongruent,correct,418
sub-19,450,low_activation,incongruent,correct,488
sub-19,451,low_activation,incongruent,correct,306
sub-19,452,low_activation,congruent,correct,394
sub-19,453,low_activation,incongruent,correct,417
sub-19,454,low_activation,congruent,correct,364
sub-19,455,low_activation,incongruent,correct,381
sub-19,456,low_activation,congruent,correct,456
sub-19,457,low_activation,incongruent,correct,428
sub-19,458,low_activation,congruent,correct,410
sub-19,459,low_activation,incongruent,incorrect,318
sub-19,460,low_activation,incongruent,correct,527
sub-19,461,low_activation,incongruent,correct,470
sub-19,462,low_activation,incongruent,correct,432
sub-19,463,low_activation,congruent,correct,521
sub-19,464,low_activation,incongruent,correct,549
sub-19,465,low_activation,congruent,correct,442
sub-19,466,low_activation,incongruent,correct,416
sub-19,467,low_activation,incongruent,correct,434
sub-19,468,low_activation,incongruent,correct,503
sub-19,469,low_activation,incongruent,correct,412
sub-19,470,low_activation,congruent,correct,451
sub-19,471,low_activation,incongruent,,
sub-19,472,low_activation,congruent,correct,448
sub-19,473,low_activation,congruent,correct,468
sub-19,474,low_activation,congruent,correct,337
sub-19,475,low_activation,incongruent,correct,532
sub-19,476,low_activation,incongruent,correct,462
sub-19,477,low_activation,incongruent,correct,408
sub-19,478,low_activation,incongruent,correct,485
sub-19,479,low_activation,incongruent,correct,429
sub-19,480,low_activation,incongruent,correct,450
sub-19,481,low_activation,congruent,correct,398
sub-19,482,low_activation,congruent,correct,474
sub-19,483,low_activation,congruent,correct,446
sub-19,484,low_activation,congruent,correct,427
sub-19,485,low_activation,congruent,correct,419
sub-19,486,low_activation,congruent,correct,477
sub-19,487,low_activation,incongruent,correct,673
sub-19,488,low_activation,congruent,correct,409
sub-19,489,low_activation,incongruent,correct,407
sub-19,490,low_activation,incongruent,correct,536
sub-19,491,low_activation,congruent,correct,334
sub-19,492,low_activation,congruent,correct,358
sub-19,493,low_activation,congruent,correct,344
sub-19,494,low_activation,incongruent,correct,371
sub-19,495,low_activation,incongruent,,
sub-19,496,low_activation,incongruent,,
sub-19,497,low_activation,congruent,correct,434
sub-19,498,low_activation,incongruent,correct,457
sub-19,499,low_activation,incongruent,correct,448
sub-19,500,low_activation,incongruent,,
sub-19,501,low_activation,congruent,,
sub-19,502,low_activation,incongruent,,
sub-19,503,low_activation,incongruent,correct,518
sub-19,504,low_activation,incongruent,correct,412
sub-19,505,low_activation,congruent,correct,360
sub-19,506,low_activation,congruent,correct,393
sub-19,507,low_activation,incongruent,correct,452
sub-19,508,low_activation,incongruent,correct,448
sub-19,509,low_activation,incongruent,correct,460
sub-19,510,low_activation,incongruent,correct,608
sub-19,511,low_activation,incongruent,correct,398
sub-19,512,low_activation,incongruent,correct,445
sub-19,513,low_activation,incongruent,correct,388
sub-19,514,low_activation,incongruent,correct,438
sub-19,515,low_activation,incongruent,correct,549
sub-19,516,low_activation,incongruent,correct,433
sub-19,517,low_activation,congruent,correct,416
sub-19,518,low_activation,incongruent,correct,462
sub-19,519,low_activation,congruent,correct,489
sub-19,520,low_activation,congruent,correct,414
sub-19,521,low_activation,congruent,correct,449
sub-19,522,low_activation,incongruent,correct,487
sub-19,523,low_activation,incongruent,correct,410
sub-19,524,low_activation,incongruent,correct,470
sub-19,525,low_activation,congruent,correct,454
sub-19,526,low_activation,congruent,correct,398
sub-19,527,low_activation,incongruent,correct,400
sub-19,528,low_activation,incongruent,correct,402
sub-19,529,low_activation,congruent,correct,448
sub-19,530,low_activation,congruent,correct,333
sub-19,531,low_activation,incongruent,correct,358
sub-19,532,low_activation,congruent,correct,329
sub-19,533,low_activation,congruent,correct,396
sub-19,534,low_activation,incongruent,correct,406
sub-19,535,low_activation,incongruent,correct,398
sub-19,536,low_activation,congruent,correct,382
sub-19,537,low_activation,congruent,correct,391
sub-19,538,low_activation,congruent,correct,344
sub-19,539,low_activation,congruent,correct,361
sub-19,540,low_activation,congruent,correct,330
sub-19,541,low_activation,congruent,correct,344
sub-19,542,low_activation,congruent,correct,326
sub-19,543,low_activation,congruent,correct,310
sub-19,544,low_activation,incongruent,correct,424
sub-19,545,low_activation,congruent,correct,311
sub-19,546,low_activation,incongruent,correct,419
sub-19,547,low_activation,congruent,correct,311
sub-19,548,low_activation,congruent,correct,332
sub-19,549,low_activation,incongruent,correct,452
sub-19,550,low_activation,congruent,correct,304
sub-19,551,low_activation,incongruent,correct,426
sub-19,552,low_activation,congruent,correct,366
sub-19,553,low_activation,incongruent,correct,482
sub-19,554,low_activation,incongruent,correct,390
sub-19,555,low_activation,incongruent,incorrect,314
sub-19,556,low_activation,incongruent,correct,434
sub-19,557,low_activation,incongruent,correct,427
sub-19,558,low_activation,incongruent,correct,346
sub-19,559,low_activation,congruent,correct,423
sub-19,560,low_activation,congruent,correct,388
sub-19,561,low_activation,incongruent,correct,507
sub-19,562,low_activation,congruent,correct,382
sub-19,563,low_activation,congruent,correct,441
sub-19,564,low_activation,incongruent,correct,426
sub-19,565,low_activation,congruent,correct,368
sub-19,566,low_activation,congruent,correct,394
sub-19,567,low_activation,incongruent,correct,440
sub-19,568,low_activation,incongruent,correct,380
sub-19,569,low_activation,congruent,correct,407
sub-19,570,low_activation,congruent,correct,388
sub-19,571,low_activation,incongruent,correct,448
sub-19,572,low_activation,incongruent,correct,372
sub-19,573,low_activation,incongruent,correct,436
sub-19,574,low_activation,incongruent,correct,394
sub-19,575,low_activation,incongruent,correct,485
sub-19,576,low_activation,congruent,correct,339
sub-19,577,low_activation,incongruent,correct,413
sub-19,578,low_activation,incongruent,correct,375
sub-19,579,low_activation,incongruent,correct,352
sub-19,580,low_activation,congruent,correct,346
sub-19,581,low_activation,incongruent,correct,384
sub-19,582,low_activation,congruent,correct,398
sub-19,583,low_activation,incongruent,correct,362
sub-19,584,low_activation,congruent,correct,410
sub-19,585,low_activation,incongruent,correct,518
sub-19,586,low_activation,incongruent,correct,296
sub-19,587,low_activation,incongruent,correct,470
sub-19,588,low_activation,congruent,correct,413
sub-19,589,low_activation,incongruent,correct,424
sub-19,590,low_activation,congruent,correct,357
sub-19,591,low_activation,incongruent,correct,398
sub-19,592,low_activation,incongruent,correct,418
sub-19,593,low_activation,congruent,correct,392
sub-19,594,low_activation,congruent,correct,361
sub-19,595,low_activation,incongruent,correct,368
sub-19,596,low_activation,incongruent,correct,424
sub-19,597,low_activation,incongruent,correct,397
sub-19,598,low_activation,congruent,correct,585
sub-19,599,low_activation,congruent,correct,330
sub-19,600,low_activation,congruent,correct,493
sub-19,601,low_activation,congruent,correct,348
sub-19,602,low_activation,incongruent,correct,494
sub-19,603,low_activation,congruent,correct,462
sub-19,604,low_activation,incongruent,correct,496
sub-19,605,low_activation,incongruent,correct,468
sub-19,606,low_activation,incongruent,correct,425
sub-19,607,low_activation,incongruent,correct,422
sub-19,608,low_activation,incongruent,correct,479
sub-19,609,low_activation,incongruent,correct,337
sub-19,610,low_activation,congruent,correct,398
sub-19,611,low_activation,congruent,correct,387
sub-19,612,low_activation,incongruent,correct,534
sub-19,613,low_activation,incongruent,correct,388
sub-19,614,low_activation,incongruent,correct,474
sub-19,615,low_activation,incongruent,correct,421
sub-19,616,low_activation,incongruent,correct,452
sub-19,617,low_activation,incongruent,correct,344
sub-19,618,low_activation,congruent,correct,342
sub-19,619,low_activation,congruent,correct,352
sub-19,620,low_activation,congruent,correct,358
sub-19,621,low_activation,congruent,correct,412
sub-19,622,low_activation,congruent,correct,362
sub-19,623,low_activation,congruent,correct,329
sub-19,624,low_activation,incongruent,correct,417
sub-19,625,low_activation,incongruent,correct,314
sub-19,626,low_activation,congruent,correct,402
sub-19,627,low_activation,incongruent,correct,410
sub-19,628,low_activation,congruent,correct,310
sub-19,629,low_activation,incongruent,correct,515
sub-19,630,low_activation,incongruent,correct,301
sub-19,631,low_activation,congruent,correct,434
sub-19,632,low_activation,congruent,correct,350
sub-19,633,low_activation,incongruent,correct,442
sub-19,634,low_activation,incongruent,correct,296
sub-19,635,low_activation,incongruent,correct,376
sub-19,636,low_activation,congruent,correct,568
sub-19,637,low_activation,incongruent,correct,431
sub-19,638,low_activation,incongruent,incorrect,342
sub-19,639,low_activation,incongruent,correct,394
sub-19,640,low_activation,congruent,correct,406
sub-19,641,low_activation,congruent,correct,408
sub-19,642,low_activation,incongruent,incorrect,418
sub-19,643,low_activation,congruent,correct,553
sub-19,644,low_activation,congruent,correct,374
sub-19,645,low_activation,incongruent,correct,419
sub-19,646,low_activation,congruent,correct,486
sub-19,647,low_activation,congruent,correct,409
sub-19,648,low_activation,incongruent,correct,378
sub-19,649,low_activation,congruent,correct,383
sub-19,650,low_activation,incongruent,correct,546
sub-19,651,low_activation,congruent,correct,379
sub-19,652,low_activation,congruent,correct,351
sub-19,653,low_activation,congruent,correct,364
sub-19,654,low_activation,congruent,correct,431
sub-19,655,low_activation,congruent,correct,356
sub-19,656,low_activation,incongruent,correct,419
sub-19,657,low_activation,congruent,correct,427
sub-19,658,low_activation,congruent,correct,500
sub-19,659,low_activation,incongruent,correct,452
sub-19,660,low_activation,incongruent,correct,472
sub-19,661,low_activation,congruent,correct,507
sub-19,662,low_activation,incongruent,correct,466
sub-19,663,low_activation,incongruent,correct,401
sub-19,664,low_activation,incongruent,correct,494
sub-19,665,low_activation,congruent,correct,393
sub-19,666,low_activation,congruent,correct,375
sub-19,667,low_activation,congruent,correct,430
sub-19,668,low_activation,incongruent,,
sub-19,669,low_activation,congruent,correct,439
sub-19,670,low_activation,congruent,correct,411
sub-19,671,low_activation,congruent,correct,393
sub-19,672,low_activation,congruent,correct,454
sub-19,673,low_activation,congruent,correct,414
sub-19,674,low_activation,incongruent,correct,444
sub-19,675,low_activation,congruent,correct,424
sub-19,676,low_activation,congruent,correct,434
sub-19,677,low_activation,congruent,correct,341
sub-19,678,low_activation,incongruent,correct,398
sub-19,679,low_activation,incongruent,correct,474
sub-19,680,low_activation,congruent,correct,445
sub-19,681,low_activation,incongruent,correct,426
sub-19,682,low_activation,incongruent,correct,451
sub-19,683,low_activation,congruent,correct,387
sub-19,684,low_activation,incongruent,correct,602
sub-19,685,low_activation,incongruent,correct,467
sub-19,686,low_activation,congruent,correct,426
sub-19,687,low_activation,congruent,correct,382
sub-19,688,low_activation,incongruent,correct,464
sub-19,689,low_activation,congruent,correct,436
sub-19,690,low_activation,incongruent,correct,345
sub-19,691,low_activation,congruent,correct,442
sub-19,692,low_activation,incongruent,correct,403
sub-19,693,low_activation,congruent,correct,475
sub-19,694,low_activation,congruent,correct,364
sub-19,695,low_activation,incongruent,correct,571
sub-19,696,low_activation,incongruent,correct,357
sub-19,697,low_activation,congruent,correct,410
sub-19,698,low_activation,incongruent,correct,360
sub-19,699,low_activation,congruent,correct,354
sub-19,700,low_activation,congruent,correct,372
sub-19,701,low_activation,incongruent,incorrect,350
sub-19,702,low_activation,incongruent,correct,497
sub-19,703,low_activation,congruent,correct,522
sub-19,704,low_activation,incongruent,correct,407
sub-19,705,low_activation,incongruent,correct,517
sub-19,706,low_activation,congruent,correct,584
sub-19,707,low_activation,incongruent,correct,473
sub-19,708,low_activation,congruent,correct,477
sub-19,709,low_activation,congruent,correct,470
sub-19,710,low_activation,incongruent,correct,440
sub-19,711,low_activation,congruent,correct,419
sub-19,712,low_activation,congruent,correct,384
sub-19,713,low_activation,incongruent,correct,437
sub-19,714,low_activation,incongruent,correct,489
sub-19,715,low_activation,congruent,,
sub-19,716,low_activation,incongruent,correct,576
sub-19,717,low_activation,congruent,correct,348
sub-19,718,low_activation,incongruent,correct,438
sub-19,719,low_activation,incongruent,correct,330
sub-19,720,low_activation,congruent,correct,441
sub-19,721,low_activation,incongruent,incorrect,394
sub-19,722,low_activation,incongruent,correct,450
sub-19,723,low_activation,congruent,correct,487
sub-19,724,low_activation,incongruent,correct,479
sub-19,725,low_activation,congruent,correct,433
sub-19,726,low_activation,incongruent,correct,471
sub-19,727,low_activation,incongruent,correct,422
sub-19,728,low_activation,congruent,correct,468
sub-19,729,low_activation,incongruent,correct,458
sub-19,730,low_activation,incongruent,,
sub-19,731,low_activation,congruent,correct,437
sub-19,732,low_activation,congruent,correct,343
sub-19,733,low_activation,congruent,correct,421
sub-19,734,low_activation,congruent,correct,448
sub-19,735,low_activation,congruent,correct,543
sub-19,736,low_activation,incongruent,correct,416
sub-19,737,low_activation,congruent,,
sub-19,738,low_activation,incongruent,correct,587
sub-19,739,low_activation,congruent,correct,382
sub-19,740,low_activation,congruent,correct,498
sub-19,741,low_activation,congruent,correct,418
sub-19,742,low_activation,congruent,,
sub-19,743,low_activation,congruent,correct,514
sub-19,744,low_activation,incongruent,correct,480
sub-19,745,low_activation,incongruent,correct,445
sub-19,746,low_activation,incongruent,correct,456
sub-19,747,low_activation,congruent,correct,658
sub-19,748,low_activation,congruent,correct,373
sub-19,749,low_activation,congruent,correct,441
sub-19,750,low_activation,congruent,correct,416
sub-19,751,low_activation,incongruent,correct,457
sub-19,752,low_activation,incongruent,correct,471
sub-19,753,low_activation,incongruent,correct,406
sub-19,754,low_activation,incongruent,correct,349
sub-19,755,low_activation,congruent,correct,399
sub-19,756,low_activation,congruent,correct,357
sub-19,757,low_activation,incongruent,correct,452
sub-19,758,low_activation,incongruent,correct,471
sub-19,759,low_activation,incongruent,correct,443
sub-19,760,low_activation,incongruent,correct,486
sub-19,761,low_activation,congruent,correct,428
sub-19,762,low_activation,congruent,correct,381
sub-19,763,low_activation,congruent,correct,422
sub-19,764,low_activation,incongruent,correct,390
sub-19,765,low_activation,incongruent,correct,493
sub-19,766,low_activation,incongruent,correct,481
sub-19,767,low_activation,incongruent,correct,409
sub-19,768,low_activation,congruent,correct,458
sub-19,769,low_activation,incongruent,correct,766
sub-19,770,low_activation,congruent,correct,385
sub-19,771,low_activation,congruent,correct,358
sub-19,772,low_activation,congruent,correct,324
sub-19,773,low_activation,congruent,correct,345
sub-19,774,low_activation,congruent,correct,318
sub-19,775,low_activation,congruent,correct,364
sub-19,776,low_activation,congruent,correct,257
sub-19,777,low_activation,incongruent,correct,370
sub-19,778,low_activation,incongruent,correct,438
sub-19,779,low_activation,incongruent,correct,347
sub-19,780,low_activation,incongruent,correct,314
sub-19,781,low_activation,congruent,correct,446
sub-19,782,low_activation,congruent,correct,313
sub-19,783,low_activation,congruent,correct,585
sub-19,784,low_activation,incongruent,correct,441
sub-19,785,low_activation,incongruent,correct,430
sub-19,786,low_activation,incongruent,correct,444
sub-19,787,low_activation,incongruent,correct,503
sub-19,788,low_activation,congruent,correct,491
sub-19,789,low_activation,incongruent,correct,686
sub-19,790,low_activation,incongruent,correct,416
sub-19,791,low_activation,incongruent,correct,480
