sub_ID,trial_number,physical_activation,trial_congruency,resp_correctness,reaction_times
sub-05,1,high_activation,incongruent,correct,689
sub-05,2,high_activation,incongruent,correct,452
sub-05,3,high_activation,congruent,correct,423
sub-05,4,high_activation,congruent,correct,408
sub-05,5,high_activation,incongruent,correct,425
sub-05,6,high_activation,congruent,correct,388
sub-05,7,high_activation,incongruent,correct,452
sub-05,8,high_activation,congruent,correct,402
sub-05,9,high_activation,congruent,correct,382
sub-05,10,high_activation,congruent,correct,435
sub-05,11,high_activation,incongruent,correct,416
sub-05,12,high_activation,incongruent,correct,408
sub-05,13,high_activation,incongruent,correct,464
sub-05,14,high_activation,congruent,correct,307
sub-05,15,high_activation,incongruent,correct,480
sub-05,16,high_activation,incongruent,correct,489
sub-05,17,high_activation,incongruent,correct,492
sub-05,18,high_activation,congruent,correct,412
sub-05,19,high_activation,incongruent,correct,402
sub-05,20,high_activation,incongruent,correct,388
sub-05,21,high_activation,congruent,correct,540
sub-05,22,high_activation,incongruent,correct,436
sub-05,23,high_activation,congruent,correct,328
sub-05,24,high_activation,congruent,correct,396
sub-05,25,high_activation,incongruent,correct,460
sub-05,26,high_activation,congruent,correct,418
sub-05,27,high_activation,congruent,correct,362
sub-05,28,high_activation,congruent,correct,324
sub-05,29,high_activation,congruent,correct,318
sub-05,30,high_activation,incongruent,correct,424
sub-05,31,high_activation,congruent,correct,470
sub-05,32,high_activation,incongruent,correct,466
sub-05,33,high_activation,congruent,correct,392
sub-05,34,high_activation,incongruent,incorrect,325
sub-05,35,high_activation,incongruent,correct,512
sub-05,36,high_activation,incongruent,correct,442
sub-05,37,high_activation,incongruent,correct,396
sub-05,38,high_activation,congruent,correct,376
sub-05,39,high_activation,incongruent,correct,417
sub-05,40,high_activation,congruent,correct,466
sub-05,41,high_activation,congruent,correct,445
sub-05,42,high_activation,congruent,correct,488
sub-05,43,high_activation,incongruent,correct,494
sub-05,44,high_activation,congruent,correct,396
sub-05,45,high_activation,congruent,correct,342
sub-05,46,high_activation,incongruent,correct,574
sub-05,47,high_activation,incongruent,incorrect,402
sub-05,48,high_activation,incongruent,correct,425
sub-05,49,high_activation,incongruent,correct,448
sub-05,50,high_activation,congruent,correct,344
sub-05,51,high_activation,congruent,correct,510
sub-05,52,high_activation,congruent,correct,296
sub-05,53,high_activation,congruent,correct,426
sub-05,54,high_activation,congruent,correct,498
sub-05,55,high_activation,congruent,correct,344
sub-05,56,high_activation,congruent,correct,455
sub-05,57,high_activation,incongruent,correct,430
sub-05,58,high_activation,congruent,correct,366
sub-05,59,high_activation,congruent,correct,460
sub-05,60,high_activation,incongruent,incorrect,406
sub-05,61,high_activation,incongruent,correct,429
sub-05,62,high_activation,incongruent,correct,392
sub-05,63,high_activation,congruent,correct,292
sub-05,64,high_activation,congruent,correct,482
sub-05,65,high_activation,incongruent,correct,585
sub-05,66,high_activation,congruent,correct,354
sub-05,67,high_activation,congruent,correct,402
sub-05,68,high_activation,congruent,correct,370
sub-05,69,high_activation,incongruent,correct,422
sub-05,70,high_activation,congruent,correct,438
sub-05,71,high_activation,incongruent,correct,472
sub-05,72,high_activation,incongruent,correct,506
sub-05,73,high_activation,congruent,correct,434
sub-05,74,high_activation,incongruent,correct,405
sub-05,75,high_activation,incongruent,correct,374
sub-05,76,high_activation,congruent,correct,302
sub-05,77,high_activation,incongruent,correct,394
sub-05,78,high_activation,congruent,correct,490
sub-05,79,high_activation,incongruent,correct,359
sub-05,80,high_activation,incongruent,correct,566
sub-05,81,high_activation,congruent,correct,418
sub-05,82,high_activation,congruent,correct,436
sub-05,83,high_activation,incongruent,correct,352
sub-05,84,high_activation,incongruent,correct,361
sub-05,85,high_activation,incongruent,correct,575
sub-05,86,high_activation,incongruent,correct,396
sub-05,87,high_activation,congruent,correct,436
sub-05,88,high_activation,incongruent,correct,338
sub-05,89,high_activation,incongruent,correct,538
sub-05,90,high_activation,incongruent,correct,482
sub-05,91,high_activation,incongruent,correct,588
sub-05,92,high_activation,incongruent,correct,425
sub-05,93,high_activation,incongruent,correct,464
sub-05,94,high_activation,incongruent,correct,388
sub-05,95,high_activation,congruent,correct,292
sub-05,96,high_activation,incongruent,correct,506
sub-05,97,high_activation,congruent,correct,352
sub-05,98,high_activation,congruent,correct,354
sub-05,99,high_activation,congruent,correct,363
sub-05,100,high_activation,congruent,correct,423
sub-05,101,high_activation,congruent,correct,504
sub-05,102,high_activation,incongruent,correct,393
sub-05,103,high_activation,incongruent,correct,410
sub-05,104,high_activation,incongruent,correct,456
sub-05,105,high_activation,incongruent,correct,391
sub-05,106,high_activation,incongruent,correct,394
sub-05,107,high_activation,congruent,correct,438
sub-05,108,high_activation,incongruent,correct,468
sub-05,109,high_activation,congruent,incorrect,370
sub-05,110,high_activation,incongruent,correct,545
sub-05,111,high_activation,congruent,correct,349
sub-05,112,high_activation,congruent,correct,553
sub-05,113,high_activation,congruent,correct,383
sub-05,114,high_activation,congruent,correct,325
sub-05,115,high_activation,congruent,correct,553
sub-05,116,high_activation,congruent,correct,350
sub-05,117,high_activation,incongruent,correct,592
sub-05,118,high_activation,congruent,correct,314
sub-05,119,high_activation,congruent,correct,476
sub-05,120,high_activation,incongruent,correct,592
sub-05,121,high_activation,incongruent,correct,480
sub-05,122,high_activation,congruent,correct,470
sub-05,123,high_activation,congruent,correct,376
sub-05,124,high_activation,congruent,correct,311
sub-05,125,high_activation,congruent,correct,364
sub-05,126,high_activation,congruent,correct,408
sub-05,127,high_activation,congruent,correct,356
sub-05,128,high_activation,congruent,correct,574
sub-05,129,high_activation,incongruent,correct,578
sub-05,130,high_activation,incongruent,correct,300
sub-05,131,high_activation,incongruent,correct,423
sub-05,132,high_activation,congruent,correct,552
sub-05,133,high_activation,congruent,correct,390
sub-05,134,high_activation,congruent,correct,406
sub-05,135,high_activation,incongruent,correct,610
sub-05,136,high_activation,incongruent,correct,639
sub-05,137,high_activation,congruent,correct,336
sub-05,138,high_activation,congruent,correct,339
sub-05,139,high_activation,congruent,correct,342
sub-05,140,high_activation,congruent,correct,465
sub-05,141,high_activation,incongruent,correct,565
sub-05,142,high_activation,incongruent,correct,478
sub-05,143,high_activation,incongruent,correct,393
sub-05,144,high_activation,incongruent,correct,328
sub-05,145,high_activation,incongruent,correct,548
sub-05,146,high_activation,congruent,correct,489
sub-05,147,high_activation,incongruent,correct,522
sub-05,148,high_activation,congruent,correct,528
sub-05,149,high_activation,congruent,correct,380
sub-05,150,high_activation,incongruent,correct,370
sub-05,151,high_activation,congruent,correct,278
sub-05,152,high_activation,incongruent,correct,432
sub-05,153,high_activation,incongruent,correct,446
sub-05,154,high_activation,incongruent,correct,330
sub-05,155,high_activation,congruent,correct,456
sub-05,156,high_activation,incongruent,correct,339
sub-05,157,high_activation,congruent,correct,247
sub-05,158,high_activation,incongruent,correct,420
sub-05,159,high_activation,congruent,correct,302
sub-05,160,high_activation,congruent,correct,218
sub-05,161,high_activation,congruent,correct,496
sub-05,162,high_activation,congruent,correct,312
sub-05,163,high_activation,congruent,correct,300
sub-05,164,high_activation,congruent,correct,379
sub-05,165,high_activation,congruent,correct,512
sub-05,166,high_activation,congruent,correct,312
sub-05,167,high_activation,incongruent,incorrect,294
sub-05,168,high_activation,incongruent,correct,517
sub-05,169,high_activation,congruent,correct,404
sub-05,170,high_activation,incongruent,correct,467
sub-05,171,high_activation,congruent,correct,384
sub-05,172,high_activation,incongruent,correct,406
sub-05,173,high_activation,incongruent,correct,464
sub-05,174,high_activation,congruent,correct,354
sub-05,175,high_activation,incongruent,correct,502
sub-05,176,high_activation,congruent,correct,480
sub-05,177,high_activation,incongruent,correct,516
sub-05,178,high_activation,incongruent,correct,380
sub-05,179,high_activation,incongruent,correct,370
sub-05,180,high_activation,incongruent,correct,372
sub-05,181,high_activation,congruent,correct,508
sub-05,182,high_activation,incongruent,correct,397
sub-05,183,high_activation,incongruent,correct,392
sub-05,184,high_activation,congruent,correct,496
sub-05,185,high_activation,congruent,correct,369
sub-05,186,high_activation,incongruent,correct,429
sub-05,187,high_activation,congruent,correct,262
sub-05,188,high_activation,incongruent,correct,508
sub-05,189,high_activation,congruent,correct,439
sub-05,190,high_activation,congruent,correct,436
sub-05,191,high_activation,incongruent,correct,490
sub-05,192,high_activation,incongruent,correct,490
sub-05,193,high_activation,congruent,correct,462
sub-05,194,high_activation,congruent,correct,448
sub-05,195,high_activation,incongruent,correct,411
sub-05,196,high_activation,incongruent,correct,428
sub-05,197,high_activation,congruent,correct,435
sub-05,198,high_activation,congruent,correct,418
sub-05,199,high_activation,incongruent,correct,441
sub-05,200,high_activation,congruent,correct,288
sub-05,201,high_activation,incongruent,correct,674
sub-05,202,high_activation,incongruent,correct,502
sub-05,203,high_activation,congruent,correct,348
sub-05,204,high_activation,incongruent,correct,404
sub-05,205,high_activation,congruent,correct,357
sub-05,206,high_activation,incongruent,correct,514
sub-05,207,high_activation,congruent,correct,356
sub-05,208,high_activation,congruent,correct,346
sub-05,209,high_activation,incongruent,correct,443
sub-05,210,high_activation,congruent,correct,352
sub-05,211,high_activation,congruent,correct,452
sub-05,212,high_activation,congruent,correct,250
sub-05,213,high_activation,congruent,correct,240
sub-05,214,high_activation,incongruent,correct,422
sub-05,215,high_activation,incongruent,incorrect,312
sub-05,216,high_activation,congruent,correct,446
sub-05,217,high_activation,incongruent,incorrect,445
sub-05,218,high_activation,incongruent,correct,408
sub-05,219,high_activation,congruent,correct,462
sub-05,220,high_activation,incongruent,correct,426
sub-05,221,high_activation,incongruent,correct,432
sub-05,222,high_activation,incongruent,correct,498
sub-05,223,high_activation,congruent,correct,358
sub-05,224,high_activation,congruent,correct,290
sub-05,225,high_activation,incongruent,correct,372
sub-05,226,high_activation,congruent,correct,422
sub-05,227,high_activation,congruent,correct,346
sub-05,228,high_activation,incongruent,correct,530
sub-05,229,high_activation,congruent,correct,438
sub-05,230,high_activation,incongruent,incorrect,334
sub-05,231,high_activation,incongruent,correct,711
sub-05,232,high_activation,congruent,correct,404
sub-05,233,high_activation,congruent,correct,314
sub-05,234,high_activation,congruent,correct,337
sub-05,235,high_activation,incongruent,correct,414
sub-05,236,high_activation,congruent,correct,293
sub-05,237,high_activation,incongruent,correct,472
sub-05,238,high_activation,congruent,correct,367
sub-05,239,high_activation,incongruent,correct,484
sub-05,240,high_activation,congruent,correct,358
sub-05,241,high_activation,incongruent,correct,448
sub-05,242,high_activation,incongruent,correct,420
sub-05,243,high_activation,congruent,correct,414
sub-05,244,high_activation,congruent,correct,421
sub-05,245,high_activation,congruent,correct,398
sub-05,246,high_activation,congruent,correct,331
sub-05,247,high_activation,incongruent,correct,406
sub-05,248,high_activation,congruent,correct,326
sub-05,249,high_activation,incongruent,correct,537
sub-05,250,high_activation,incongruent,correct,417
sub-05,251,high_activation,congruent,correct,340
sub-05,252,high_activation,congruent,correct,369
sub-05,253,high_activation,congruent,correct,422
sub-05,254,high_activation,incongruent,correct,504
sub-05,255,high_activation,congruent,correct,410
sub-05,256,high_activation,congruent,correct,396
sub-05,257,high_activation,congruent,correct,363
sub-05,258,high_activation,incongruent,correct,380
sub-05,259,high_activation,congruent,correct,401
sub-05,260,high_activation,incongruent,correct,432
sub-05,261,high_activation,incongruent,correct,521
sub-05,262,high_activation,incongruent,correct,373
sub-05,263,high_activation,congruent,correct,222
sub-05,264,high_activation,congruent,correct,296
sub-05,265,high_activation,congruent,correct,268
sub-05,266,high_activation,incongruent,correct,485
sub-05,267,high_activation,congruent,correct,382
sub-05,268,high_activation,congruent,correct,435
sub-05,269,high_activation,congruent,correct,328
sub-05,270,high_activation,incongruent,correct,418
sub-05,271,high_activation,congruent,correct,362
sub-05,272,high_activation,congruent,correct,352
sub-05,273,high_activation,incongruent,correct,492
sub-05,274,high_activation,incongruent,correct,380
sub-05,275,high_activation,congruent,correct,290
sub-05,276,high_activation,incongruent,correct,524
sub-05,277,high_activation,congruent,correct,563
sub-05,278,high_activation,congruent,correct,427
sub-05,279,high_activation,congruent,correct,298
sub-05,280,high_activation,incongruent,incorrect,448
sub-05,281,high_activation,incongruent,correct,336
sub-05,282,high_activation,incongruent,correct,464
sub-05,283,high_activation,incongruent,correct,442
sub-05,284,high_activation,incongruent,correct,466
sub-05,285,high_activation,incongruent,correct,474
sub-05,286,high_activation,incongruent,correct,394
sub-05,287,high_activation,congruent,correct,286
sub-05,288,high_activation,congruent,correct,308
sub-05,289,high_activation,congruent,correct,374
sub-05,290,high_activation,congruent,correct,364
sub-05,291,high_activation,congruent,correct,377
sub-05,292,high_activation,incongruent,incorrect,368
sub-05,293,high_activation,incongruent,correct,480
sub-05,294,high_activation,incongruent,correct,338
sub-05,295,high_activation,incongruent,correct,454
sub-05,296,high_activation,congruent,incorrect,386
sub-05,297,high_activation,incongruent,correct,428
sub-05,298,high_activation,incongruent,correct,488
sub-05,299,high_activation,incongruent,correct,350
sub-05,300,high_activation,congruent,correct,524
sub-05,301,high_activation,congruent,correct,326
sub-05,302,high_activation,incongruent,correct,620
sub-05,303,high_activation,congruent,correct,436
sub-05,304,high_activation,congruent,correct,370
sub-05,305,high_activation,incongruent,correct,532
sub-05,306,high_activation,incongruent,correct,551
sub-05,307,high_activation,incongruent,correct,412
sub-05,308,high_activation,incongruent,correct,402
sub-05,309,high_activation,incongruent,correct,375
sub-05,310,high_activation,congruent,correct,473
sub-05,311,high_activation,incongruent,correct,552
sub-05,312,high_activation,congruent,correct,326
sub-05,313,high_activation,incongruent,correct,292
sub-05,314,high_activation,incongruent,correct,464
sub-05,315,high_activation,congruent,correct,476
sub-05,316,high_activation,congruent,correct,444
sub-05,317,high_activation,congruent,correct,522
sub-05,318,high_activation,congruent,correct,454
sub-05,319,high_activation,incongruent,correct,490
sub-05,320,high_activation,congruent,correct,432
sub-05,321,high_activation,congruent,correct,292
sub-05,322,high_activation,incongruent,correct,342
sub-05,323,high_activation,incongruent,correct,337
sub-05,324,high_activation,incongruent,correct,346
sub-05,325,high_activation,congruent,correct,367
sub-05,326,high_activation,incongruent,correct,384
sub-05,327,high_activation,incongruent,correct,433
sub-05,328,high_activation,incongruent,correct,528
sub-05,329,high_activation,congruent,correct,277
sub-05,330,high_activation,incongruent,correct,380
sub-05,331,high_activation,incongruent,correct,436
sub-05,332,high_activation,congruent,correct,467
sub-05,333,high_activation,incongruent,correct,468
sub-05,334,high_activation,incongruent,correct,330
sub-05,335,high_activation,incongruent,correct,572
sub-05,336,high_activation,incongruent,correct,328
sub-05,337,high_activation,incongruent,correct,428
sub-05,338,high_activation,congruent,correct,308
sub-05,339,high_activation,congruent,correct,342
sub-05,340,high_activation,congruent,correct,322
sub-05,341,high_activation,incongruent,correct,348
sub-05,342,high_activation,incongruent,correct,410
sub-05,343,high_activation,congruent,correct,446
sub-05,344,high_activation,incongruent,correct,363
sub-05,345,high_activation,congruent,correct,396
sub-05,346,high_activation,incongruent,correct,665
sub-05,347,high_activation,incongruent,correct,519
sub-05,348,high_activation,incongruent,correct,264
sub-05,349,high_activation,incongruent,correct,384
sub-05,350,high_activation,incongruent,correct,300
sub-05,351,high_activation,incongruent,correct,540
sub-05,352,high_activation,congruent,correct,470
sub-05,353,high_activation,incongruent,correct,426
sub-05,354,high_activation,congruent,correct,442
sub-05,355,high_activation,incongruent,correct,251
sub-05,356,high_activation,congruent,correct,476
sub-05,357,high_activation,congruent,correct,412
sub-05,358,high_activation,incongruent,correct,385
sub-05,359,high_activation,congruent,correct,282
sub-05,360,high_activation,incongruent,correct,438
sub-05,361,high_activation,congruent,correct,414
sub-05,362,high_activation,incongruent,correct,360
sub-05,363,high_activation,incongruent,correct,378
sub-05,364,high_activation,congruent,incorrect,352
sub-05,365,high_activation,incongruent,correct,468
sub-05,366,high_activation,incongruent,correct,394
sub-05,367,high_activation,congruent,correct,427
sub-05,368,high_activation,congruent,correct,439
sub-05,369,high_activation,congruent,correct,398
sub-05,370,high_activation,incongruent,correct,537
sub-05,371,high_activation,congruent,correct,446
sub-05,372,high_activation,incongruent,correct,509
sub-05,373,high_activation,congruent,incorrect,10
sub-05,374,high_activation,congruent,correct,440
sub-05,375,high_activation,congruent,correct,437
sub-05,376,high_activation,congruent,correct,408
sub-05,377,high_activation,incongruent,correct,482
sub-05,378,high_activation,congruent,correct,309
sub-05,379,high_activation,incongruent,correct,358
sub-05,380,high_activation,congruent,correct,364
sub-05,381,high_activation,congruent,,NaN
sub-05,382,high_activation,congruent,correct,377
sub-05,383,high_activation,congruent,correct,318
sub-05,384,high_activation,congruent,correct,330
sub-05,385,high_activation,incongruent,correct,394
sub-05,386,high_activation,congruent,correct,357
sub-05,387,high_activation,congruent,correct,378
sub-05,388,high_activation,congruent,correct,244
sub-05,389,high_activation,congruent,correct,378
sub-05,390,high_activation,congruent,correct,256
sub-05,391,high_activation,incongruent,correct,549
sub-05,392,high_activation,congruent,correct,452
sub-05,393,high_activation,congruent,correct,300
sub-05,394,high_activation,congruent,correct,303
sub-05,395,high_activation,congruent,correct,278
sub-05,396,high_activation,congruent,correct,276
sub-05,397,high_activation,incongruent,correct,304
sub-05,398,high_activation,congruent,correct,344
sub-05,399,high_activation,incongruent,correct,408
sub-05,400,high_activation,congruent,correct,262
sub-05,401,high_activation,incongruent,correct,292
sub-05,402,high_activation,incongruent,correct,368
sub-05,403,high_activation,congruent,correct,346
sub-05,404,high_activation,incongruent,incorrect,375
sub-05,405,high_activation,incongruent,correct,216
sub-05,406,high_activation,incongruent,correct,292
sub-05,407,high_activation,incongruent,correct,306
sub-05,408,high_activation,congruent,correct,287
sub-05,409,high_activation,incongruent,incorrect,287
sub-05,410,high_activation,incongruent,correct,392
sub-05,411,high_activation,congruent,correct,222
sub-05,412,high_activation,incongruent,incorrect,262
sub-05,413,high_activation,incongruent,correct,606
sub-05,414,high_activation,incongruent,correct,532
sub-05,415,high_activation,congruent,correct,636
sub-05,416,high_activation,congruent,correct,484
sub-05,417,high_activation,incongruent,correct,260
sub-05,418,high_activation,congruent,correct,506
sub-05,419,high_activation,incongruent,correct,256
sub-05,420,high_activation,incongruent,correct,506
sub-05,421,high_activation,congruent,correct,360
sub-05,422,high_activation,congruent,correct,282
sub-05,423,high_activation,congruent,correct,491
sub-05,424,high_activation,incongruent,correct,418
sub-05,425,high_activation,congruent,correct,482
sub-05,426,high_activation,incongruent,correct,536
sub-05,427,high_activation,incongruent,correct,452
sub-05,428,high_activation,incongruent,correct,414
sub-05,429,high_activation,congruent,correct,370
sub-05,430,high_activation,incongruent,correct,406
sub-05,431,high_activation,incongruent,correct,538
sub-05,432,high_activation,congruent,correct,302
sub-05,433,high_activation,incongruent,correct,452
sub-05,434,high_activation,congruent,correct,288
sub-05,435,high_activation,congruent,correct,378
sub-05,436,high_activation,incongruent,incorrect,293
sub-05,437,high_activation,congruent,correct,392
sub-05,438,high_activation,incongruent,correct,560
sub-05,439,high_activation,incongruent,correct,344
sub-05,440,high_activation,incongruent,correct,390
sub-05,441,high_activation,congruent,correct,417
sub-05,442,high_activation,congruent,correct,268
sub-05,443,high_activation,congruent,correct,440
sub-05,444,high_activation,incongruent,correct,398
sub-05,445,high_activation,congruent,correct,358
sub-05,446,high_activation,congruent,correct,444
sub-05,447,high_activation,congruent,correct,490
sub-05,448,high_activation,incongruent,correct,460
sub-05,449,high_activation,incongruent,correct,312
sub-05,450,high_activation,incongruent,correct,304
sub-05,451,high_activation,incongruent,correct,368
sub-05,452,high_activation,incongruent,correct,334
sub-05,453,high_activation,congruent,correct,302
sub-05,454,high_activation,incongruent,correct,502
sub-05,455,high_activation,incongruent,correct,624
sub-05,456,high_activation,incongruent,correct,402
sub-05,457,high_activation,incongruent,correct,301
sub-05,458,high_activation,incongruent,correct,322
sub-05,459,high_activation,congruent,correct,598
sub-05,460,high_activation,incongruent,correct,440
sub-05,461,high_activation,congruent,correct,497
sub-05,462,high_activation,congruent,correct,321
sub-05,463,high_activation,incongruent,correct,490
sub-05,464,high_activation,incongruent,correct,352
sub-05,465,high_activation,incongruent,correct,344
sub-05,466,high_activation,incongruent,correct,460
sub-05,467,high_activation,congruent,correct,390
sub-05,468,high_activation,incongruent,correct,482
sub-05,469,high_activation,congruent,correct,650
sub-05,470,high_activation,congruent,correct,480
sub-05,471,high_activation,congruent,correct,525
sub-05,472,high_activation,incongruent,correct,540
sub-05,473,high_activation,congruent,correct,399
sub-05,474,high_activation,congruent,correct,434
sub-05,475,high_activation,congruent,correct,518
sub-05,476,high_activation,congruent,correct,320
sub-05,477,high_activation,congruent,correct,354
sub-05,478,high_activation,incongruent,incorrect,247
sub-05,479,high_activation,congruent,correct,524
sub-05,480,high_activation,congruent,correct,322
sub-05,481,high_activation,congruent,correct,456
sub-05,482,high_activation,congruent,correct,384
sub-05,483,high_activation,incongruent,correct,470
sub-05,484,high_activation,congruent,correct,502
sub-05,485,high_activation,incongruent,correct,464
sub-05,486,high_activation,congruent,correct,351
sub-05,487,high_activation,congruent,correct,264
sub-05,488,high_activation,congruent,correct,424
sub-05,489,high_activation,incongruent,correct,416
sub-05,490,high_activation,congruent,correct,530
sub-05,491,high_activation,congruent,correct,324
sub-05,492,high_activation,congruent,correct,370
sub-05,493,high_activation,congruent,correct,555
sub-05,494,high_activation,incongruent,correct,508
sub-05,495,high_activation,congruent,correct,402
sub-05,496,high_activation,incongruent,correct,578
sub-05,497,high_activation,congruent,correct,288
sub-05,498,high_activation,incongruent,correct,567
sub-05,499,high_activation,incongruent,correct,446
sub-05,500,high_activation,incongruent,correct,644
sub-05,501,high_activation,incongruent,correct,328
sub-05,502,high_activation,congruent,correct,436
sub-05,503,high_activation,incongruent,correct,411
sub-05,504,high_activation,congruent,correct,419
sub-05,505,high_activation,congruent,correct,564
sub-05,506,high_activation,congruent,correct,479
sub-05,507,high_activation,incongruent,correct,496
sub-05,508,high_activation,incongruent,correct,464
sub-05,509,high_activation,incongruent,correct,458
sub-05,510,high_activation,incongruent,correct,470
sub-05,511,high_activation,congruent,correct,452
sub-05,512,high_activation,incongruent,correct,638
sub-05,513,high_activation,incongruent,correct,490
sub-05,514,high_activation,congruent,correct,420
sub-05,515,high_activation,incongruent,correct,478
sub-05,516,high_activation,incongruent,correct,294
sub-05,517,high_activation,congruent,correct,396
sub-05,518,high_activation,incongruent,correct,350
sub-05,519,high_activation,incongruent,correct,466
sub-05,520,high_activation,congruent,correct,289
sub-05,521,high_activation,incongruent,correct,473
sub-05,522,high_activation,incongruent,correct,476
sub-05,523,high_activation,incongruent,correct,352
sub-05,524,high_activation,congruent,correct,418
sub-05,525,high_activation,incongruent,correct,430
sub-05,526,high_activation,incongruent,correct,430
sub-05,527,high_activation,incongruent,correct,498
sub-05,528,high_activation,incongruent,correct,440
sub-05,529,high_activation,incongruent,correct,496
sub-05,530,high_activation,incongruent,correct,418
sub-05,531,high_activation,incongruent,correct,423
sub-05,532,high_activation,incongruent,correct,636
sub-05,533,high_activation,incongruent,correct,474
sub-05,534,high_activation,incongruent,correct,416
sub-05,535,high_activation,incongruent,correct,326
sub-05,536,high_activation,incongruent,correct,452
sub-05,537,high_activation,incongruent,correct,386
sub-05,538,high_activation,incongruent,correct,336
sub-05,539,high_activation,incongruent,correct,464
sub-05,540,high_activation,congruent,incorrect,369
sub-05,541,high_activation,incongruent,correct,442
sub-05,542,high_activation,congruent,correct,434
sub-05,543,high_activation,congruent,correct,495
sub-05,544,high_activation,incongruent,correct,482
sub-05,545,high_activation,congruent,correct,384
sub-05,546,high_activation,congruent,correct,430
sub-05,547,high_activation,incongruent,incorrect,316
sub-05,548,high_activation,incongruent,correct,524
sub-05,549,high_activation,congruent,correct,401
sub-05,550,high_activation,congruent,correct,470
sub-05,551,high_activation,incongruent,incorrect,272
sub-05,552,high_activation,incongruent,correct,268
sub-05,553,high_activation,congruent,correct,296
sub-05,554,high_activation,incongruent,correct,376
sub-05,555,high_activation,incongruent,correct,284
sub-05,556,high_activation,congruent,correct,422
sub-05,557,high_activation,congruent,correct,369
sub-05,558,high_activation,incongruent,correct,396
sub-05,559,high_activation,congruent,correct,361
sub-05,560,high_activation,incongruent,correct,349
sub-05,561,high_activation,congruent,correct,430
sub-05,562,high_activation,congruent,correct,294
sub-05,563,high_activation,congruent,correct,326
sub-05,564,high_activation,incongruent,correct,628
sub-05,565,high_activation,congruent,correct,384
sub-05,566,high_activation,congruent,correct,466
sub-05,567,high_activation,incongruent,correct,448
sub-05,568,high_activation,congruent,correct,443
sub-05,569,high_activation,incongruent,correct,548
sub-05,570,high_activation,incongruent,correct,304
sub-05,571,high_activation,incongruent,correct,536
sub-05,572,high_activation,incongruent,correct,396
sub-05,573,high_activation,incongruent,correct,458
sub-05,574,high_activation,congruent,correct,376
sub-05,575,high_activation,incongruent,correct,456
sub-05,576,high_activation,congruent,correct,300
sub-05,577,high_activation,incongruent,correct,436
sub-05,578,high_activation,congruent,correct,420
sub-05,579,high_activation,congruent,correct,384
sub-05,580,high_activation,incongruent,correct,396
sub-05,581,high_activation,congruent,,NaN
sub-05,582,high_activation,incongruent,incorrect,311
sub-05,583,high_activation,congruent,correct,480
sub-05,584,high_activation,congruent,correct,430
sub-05,585,high_activation,congruent,,NaN
sub-05,586,high_activation,congruent,correct,377
sub-05,587,high_activation,congruent,,NaN
sub-05,588,high_activation,incongruent,correct,552
sub-05,589,high_activation,congruent,correct,507
sub-05,590,high_activation,congruent,correct,416
sub-05,591,high_activation,congruent,correct,288
sub-05,592,high_activation,incongruent,correct,336
sub-05,593,high_activation,incongruent,correct,492
sub-05,594,high_activation,congruent,correct,468
sub-05,595,high_activation,congruent,correct,456
sub-05,596,high_activation,congruent,,NaN
sub-05,597,high_activation,incongruent,correct,510
sub-05,598,high_activation,congruent,correct,471
sub-05,599,high_activation,congruent,correct,310
sub-05,600,high_activation,congruent,correct,235
sub-05,601,high_activation,incongruent,correct,432
sub-05,602,high_activation,congruent,correct,482
sub-05,603,high_activation,incongruent,correct,413
sub-05,604,high_activation,incongruent,correct,331
sub-05,605,high_activation,congruent,correct,412
sub-05,606,high_activation,congruent,correct,283
sub-05,607,high_activation,congruent,correct,462
sub-05,608,high_activation,incongruent,incorrect,295
sub-05,609,high_activation,congruent,correct,332
sub-05,610,high_activation,congruent,correct,272
sub-05,611,high_activation,incongruent,correct,310
sub-05,612,high_activation,congruent,correct,412
sub-05,613,high_activation,incongruent,correct,406
sub-05,614,high_activation,congruent,correct,264
sub-05,615,high_activation,congruent,correct,359
sub-05,616,high_activation,incongruent,correct,240
sub-05,617,high_activation,congruent,correct,364
sub-05,618,high_activation,congruent,correct,384
sub-05,619,high_activation,incongruent,correct,342
sub-05,620,high_activation,congruent,correct,502
sub-05,621,high_activation,congruent,correct,408
sub-05,622,high_activation,congruent,correct,277
sub-05,623,high_activation,congruent,correct,490
sub-05,624,high_activation,incongruent,correct,448
sub-05,625,high_activation,incongruent,correct,372
sub-05,626,high_activation,congruent,correct,344
sub-05,627,high_activation,incongruent,correct,415
sub-05,628,high_activation,incongruent,correct,506
sub-05,629,high_activation,incongruent,correct,430
sub-05,630,high_activation,incongruent,correct,414
sub-05,631,high_activation,incongruent,correct,488
sub-05,632,high_activation,congruent,correct,340
sub-05,633,high_activation,incongruent,correct,388
sub-05,634,high_activation,incongruent,correct,312
sub-05,635,high_activation,congruent,correct,426
sub-05,636,high_activation,incongruent,correct,436
sub-05,637,high_activation,incongruent,correct,448
sub-05,638,high_activation,incongruent,correct,390
sub-05,639,high_activation,incongruent,correct,367
sub-05,640,high_activation,incongruent,correct,365
sub-05,641,high_activation,congruent,correct,462
sub-05,642,high_activation,congruent,correct,428
sub-05,643,high_activation,congruent,correct,300
sub-05,644,high_activation,incongruent,correct,448
sub-05,645,high_activation,incongruent,correct,281
sub-05,646,high_activation,congruent,correct,440
sub-05,647,high_activation,congruent,correct,416
sub-05,648,high_activation,congruent,correct,337
sub-05,649,high_activation,incongruent,correct,534
sub-05,650,high_activation,congruent,correct,274
sub-05,651,high_activation,congruent,correct,249
sub-05,652,high_activation,incongruent,correct,432
sub-05,653,high_activation,incongruent,correct,337
sub-05,654,high_activation,incongruent,correct,382
sub-05,655,high_activation,congruent,correct,460
sub-05,656,high_activation,congruent,correct,360
sub-05,657,high_activation,incongruent,correct,504
sub-05,658,high_activation,incongruent,incorrect,348
sub-05,659,high_activation,congruent,correct,462
sub-05,660,high_activation,congruent,correct,410
sub-05,661,high_activation,incongruent,correct,409
sub-05,662,high_activation,incongruent,correct,590
sub-05,663,high_activation,congruent,correct,445
sub-05,664,high_activation,congruent,correct,510
sub-05,665,high_activation,congruent,correct,332
sub-05,666,high_activation,incongruent,correct,438
sub-05,667,high_activation,congruent,correct,612
sub-05,668,high_activation,congruent,correct,427
sub-05,669,high_activation,incongruent,correct,453
sub-05,670,high_activation,incongruent,correct,610
sub-05,671,high_activation,incongruent,correct,336
sub-05,672,high_activation,congruent,correct,457
sub-05,673,high_activation,congruent,correct,407
sub-05,674,high_activation,incongruent,correct,436
sub-05,675,high_activation,incongruent,correct,313
sub-05,676,high_activation,congruent,correct,526
sub-05,677,high_activation,congruent,correct,382
sub-05,678,high_activation,incongruent,correct,382
sub-05,679,high_activation,congruent,correct,573
sub-05,680,high_activation,congruent,correct,266
sub-05,681,high_activation,congruent,correct,414
sub-05,682,high_activation,congruent,correct,336
sub-05,683,high_activation,incongruent,correct,412
sub-05,684,high_activation,congruent,correct,287
sub-05,685,high_activation,congruent,correct,279
sub-05,686,high_activation,congruent,correct,402
sub-05,687,high_activation,incongruent,correct,542
sub-05,688,high_activation,incongruent,correct,596
sub-05,689,high_activation,congruent,correct,424
sub-05,690,high_activation,congruent,correct,356
sub-05,691,high_activation,congruent,correct,312
sub-05,692,high_activation,congruent,correct,330
sub-05,693,high_activation,incongruent,correct,756
sub-05,694,high_activation,congruent,correct,440
sub-05,695,high_activation,incongruent,correct,358
sub-05,696,high_activation,incongruent,correct,451
sub-05,697,high_activation,congruent,correct,352
sub-05,698,high_activation,congruent,correct,324
sub-05,699,high_activation,incongruent,correct,542
sub-05,700,high_activation,incongruent,correct,480
sub-05,701,high_activation,congruent,correct,350
sub-05,702,high_activation,incongruent,incorrect,362
sub-05,703,high_activation,incongruent,correct,591
sub-05,704,high_activation,incongruent,correct,411
sub-05,705,high_activation,incongruent,correct,584
sub-05,706,high_activation,incongruent,correct,438
sub-05,707,high_activation,congruent,correct,516
sub-05,708,high_activation,incongruent,correct,432
sub-05,709,high_activation,incongruent,correct,414
sub-05,710,high_activation,congruent,correct,330
sub-05,711,high_activation,congruent,correct,272
sub-05,712,high_activation,incongruent,correct,432
sub-05,713,high_activation,incongruent,correct,600
sub-05,714,high_activation,congruent,correct,436
sub-05,715,high_activation,incongruent,correct,352
sub-05,716,high_activation,congruent,correct,384
sub-05,717,high_activation,incongruent,incorrect,248
sub-05,718,high_activation,congruent,correct,630
sub-05,719,high_activation,incongruent,correct,406
sub-05,720,high_activation,congruent,correct,381
sub-05,721,high_activation,incongruent,correct,414
sub-05,722,high_activation,incongruent,correct,400
sub-05,723,high_activation,incongruent,correct,410
sub-05,724,high_activation,congruent,correct,459
sub-05,725,high_activation,incongruent,correct,390
sub-05,726,high_activation,congruent,correct,422
sub-05,727,high_activation,incongruent,correct,288
sub-05,728,high_activation,incongruent,correct,384
sub-05,729,high_activation,incongruent,correct,309
sub-05,730,high_activation,congruent,correct,462
sub-05,731,high_activation,congruent,correct,418
sub-05,732,high_activation,congruent,correct,268
sub-05,733,high_activation,congruent,correct,307
sub-05,734,high_activation,congruent,incorrect,270
sub-05,735,high_activation,congruent,correct,310
sub-05,736,high_activation,congruent,correct,386
sub-05,737,high_activation,congruent,correct,292
sub-05,738,high_activation,incongruent,correct,652
sub-05,739,high_activation,incongruent,correct,436
sub-05,740,high_activation,incongruent,correct,286
sub-05,741,high_activation,incongruent,correct,268
sub-05,742,high_activation,congruent,correct,353
sub-05,743,high_activation,congruent,correct,376
sub-05,744,high_activation,incongruent,correct,300
sub-05,745,high_activation,congruent,correct,398
sub-05,746,high_activation,incongruent,incorrect,402
sub-05,747,high_activation,congruent,correct,452
sub-05,748,high_activation,incongruent,incorrect,312
sub-05,749,high_activation,incongruent,correct,406
sub-05,750,high_activation,incongruent,correct,388
sub-05,751,high_activation,congruent,correct,487
sub-05,752,high_activation,congruent,correct,399
sub-05,753,high_activation,incongruent,correct,414
sub-05,754,high_activation,incongruent,correct,454
sub-05,755,high_activation,incongruent,correct,338
sub-05,756,high_activation,congruent,correct,402
sub-05,757,high_activation,incongruent,correct,302
sub-05,758,high_activation,incongruent,correct,430
sub-05,759,high_activation,incongruent,correct,296
sub-05,760,high_activation,incongruent,correct,292
sub-05,761,high_activation,congruent,correct,388
sub-05,762,high_activation,congruent,correct,305
sub-05,763,high_activation,incongruent,correct,482
sub-05,764,high_activation,incongruent,correct,394
sub-05,765,high_activation,congruent,incorrect,95
sub-05,766,high_activation,incongruent,correct,562
sub-05,767,high_activation,congruent,correct,276
sub-05,768,high_activation,congruent,correct,278
sub-05,769,high_activation,incongruent,incorrect,386
sub-05,770,high_activation,incongruent,correct,486
sub-05,771,high_activation,incongruent,correct,422
sub-05,772,high_activation,incongruent,correct,458
sub-05,773,high_activation,incongruent,correct,570
sub-05,774,high_activation,congruent,correct,290
sub-05,775,high_activation,incongruent,correct,317
sub-05,776,high_activation,congruent,correct,438
sub-05,777,high_activation,congruent,correct,410
sub-05,778,high_activation,incongruent,correct,369
sub-05,779,high_activation,congruent,correct,365
sub-05,780,high_activation,incongruent,correct,413
sub-05,781,high_activation,congruent,correct,354
sub-05,782,high_activation,incongruent,correct,400
sub-05,783,high_activation,incongruent,correct,444
sub-05,784,high_activation,congruent,correct,462
sub-05,785,high_activation,congruent,correct,321
sub-05,786,high_activation,incongruent,correct,543
sub-05,787,high_activation,congruent,correct,498
sub-05,788,high_activation,congruent,correct,598
sub-05,789,high_activation,congruent,correct,480
sub-05,790,high_activation,congruent,correct,384
sub-05,791,high_activation,congruent,correct,362
sub-05,792,high_activation,congruent,correct,472
sub-05,793,high_activation,congruent,correct,398
sub-05,794,high_activation,incongruent,correct,514
sub-05,795,high_activation,incongruent,correct,417
sub-05,796,high_activation,incongruent,correct,441
sub-05,797,high_activation,congruent,correct,531
sub-05,798,high_activation,incongruent,correct,504
sub-05,799,high_activation,incongruent,correct,385
sub-05,800,high_activation,congruent,correct,477
sub-05,801,high_activation,incongruent,correct,348
sub-05,802,high_activation,congruent,correct,316
sub-05,803,high_activation,congruent,correct,420
sub-05,804,high_activation,incongruent,correct,509
sub-05,805,high_activation,congruent,correct,426
sub-05,806,high_activation,incongruent,correct,406
sub-05,807,high_activation,incongruent,correct,298
sub-05,808,high_activation,congruent,incorrect,372
sub-05,809,high_activation,congruent,correct,400
sub-05,810,high_activation,congruent,correct,232
sub-05,811,high_activation,incongruent,correct,528
sub-05,812,high_activation,incongruent,correct,458
sub-05,813,high_activation,incongruent,correct,366
sub-05,814,high_activation,congruent,correct,350
sub-05,815,high_activation,congruent,correct,360
sub-05,816,high_activation,congruent,correct,306
sub-05,817,high_activation,congruent,correct,433
sub-05,818,high_activation,congruent,correct,383
sub-05,819,high_activation,congruent,correct,212
sub-05,820,high_activation,congruent,correct,306
sub-05,1,low_activation,congruent,correct,497
sub-05,2,low_activation,congruent,correct,465
sub-05,3,low_activation,incongruent,correct,537
sub-05,4,low_activation,congruent,correct,289
sub-05,5,low_activation,incongruent,incorrect,268
sub-05,6,low_activation,congruent,correct,320
sub-05,7,low_activation,congruent,correct,478
sub-05,8,low_activation,incongruent,correct,439
sub-05,9,low_activation,congruent,correct,528
sub-05,10,low_activation,incongruent,correct,393
sub-05,11,low_activation,incongruent,correct,412
sub-05,12,low_activation,congruent,correct,386
sub-05,13,low_activation,congruent,correct,330
sub-05,14,low_activation,incongruent,correct,420
sub-05,15,low_activation,congruent,correct,321
sub-05,16,low_activation,incongruent,correct,434
sub-05,17,low_activation,incongruent,correct,597
sub-05,18,low_activation,incongruent,correct,460
sub-05,19,low_activation,congruent,correct,484
sub-05,20,low_activation,incongruent,correct,439
sub-05,21,low_activation,incongruent,correct,424
sub-05,22,low_activation,congruent,correct,510
sub-05,23,low_activation,congruent,correct,452
sub-05,24,low_activation,incongruent,correct,418
sub-05,25,low_activation,incongruent,correct,708
sub-05,26,low_activation,incongruent,correct,407
sub-05,27,low_activation,congruent,correct,371
sub-05,28,low_activation,incongruent,correct,359
sub-05,29,low_activation,congruent,correct,582
sub-05,30,low_activation,congruent,correct,524
sub-05,31,low_activation,incongruent,correct,457
sub-05,32,low_activation,congruent,correct,308
sub-05,33,low_activation,congruent,correct,309
sub-05,34,low_activation,congruent,correct,320
sub-05,35,low_activation,incongruent,correct,440
sub-05,36,low_activation,congruent,correct,452
sub-05,37,low_activation,incongruent,correct,480
sub-05,38,low_activation,congruent,correct,460
sub-05,39,low_activation,incongruent,correct,408
sub-05,40,low_activation,incongruent,correct,510
sub-05,41,low_activation,incongruent,correct,360
sub-05,42,low_activation,incongruent,correct,524
sub-05,43,low_activation,incongruent,correct,375
sub-05,44,low_activation,incongruent,correct,480
sub-05,45,low_activation,congruent,correct,394
sub-05,46,low_activation,incongruent,correct,388
sub-05,47,low_activation,congruent,correct,359
sub-05,48,low_activation,incongruent,correct,379
sub-05,49,low_activation,incongruent,correct,359
sub-05,50,low_activation,congruent,correct,364
sub-05,51,low_activation,incongruent,correct,464
sub-05,52,low_activation,incongruent,correct,494
sub-05,53,low_activation,incongruent,correct,401
sub-05,54,low_activation,congruent,correct,371
sub-05,55,low_activation,incongruent,correct,429
sub-05,56,low_activation,congruent,correct,424
sub-05,57,low_activation,incongruent,correct,499
sub-05,58,low_activation,incongruent,correct,673
sub-05,59,low_activation,congruent,correct,430
sub-05,60,low_activation,congruent,correct,943
sub-05,61,low_activation,congruent,correct,374
sub-05,62,low_activation,congruent,correct,352
sub-05,63,low_activation,congruent,correct,338
sub-05,64,low_activation,congruent,correct,470
sub-05,65,low_activation,incongruent,correct,416
sub-05,66,low_activation,incongruent,correct,475
sub-05,67,low_activation,incongruent,correct,500
sub-05,68,low_activation,incongruent,correct,468
sub-05,69,low_activation,congruent,correct,480
sub-05,70,low_activation,congruent,correct,466
sub-05,71,low_activation,congruent,correct,440
sub-05,72,low_activation,incongruent,correct,546
sub-05,73,low_activation,congruent,correct,250
sub-05,74,low_activation,congruent,correct,386
sub-05,75,low_activation,congruent,correct,374
sub-05,76,low_activation,congruent,correct,408
sub-05,77,low_activation,incongruent,correct,388
sub-05,78,low_activation,incongruent,correct,355
sub-05,79,low_activation,incongruent,correct,448
sub-05,80,low_activation,congruent,correct,464
sub-05,81,low_activation,congruent,correct,380
sub-05,82,low_activation,incongruent,correct,558
sub-05,83,low_activation,incongruent,correct,422
sub-05,84,low_activation,congruent,correct,514
sub-05,85,low_activation,congruent,correct,336
sub-05,86,low_activation,congruent,correct,324
sub-05,87,low_activation,congruent,correct,428
sub-05,88,low_activation,incongruent,correct,478
sub-05,89,low_activation,congruent,correct,437
sub-05,90,low_activation,incongruent,correct,436
sub-05,91,low_activation,congruent,correct,514
sub-05,92,low_activation,congruent,correct,496
sub-05,93,low_activation,congruent,correct,381
sub-05,94,low_activation,congruent,correct,447
sub-05,95,low_activation,incongruent,correct,475
sub-05,96,low_activation,congruent,correct,476
sub-05,97,low_activation,incongruent,correct,510
sub-05,98,low_activation,incongruent,correct,376
sub-05,99,low_activation,incongruent,correct,469
sub-05,100,low_activation,congruent,correct,420
sub-05,101,low_activation,incongruent,incorrect,415
sub-05,102,low_activation,congruent,correct,512
sub-05,103,low_activation,congruent,correct,342
sub-05,104,low_activation,incongruent,correct,551
sub-05,105,low_activation,congruent,correct,467
sub-05,106,low_activation,incongruent,correct,466
sub-05,107,low_activation,incongruent,correct,405
sub-05,108,low_activation,congruent,correct,442
sub-05,109,low_activation,congruent,correct,343
sub-05,110,low_activation,incongruent,correct,369
sub-05,111,low_activation,incongruent,correct,464
sub-05,112,low_activation,congruent,correct,424
sub-05,113,low_activation,incongruent,correct,462
sub-05,114,low_activation,congruent,correct,414
sub-05,115,low_activation,congruent,correct,476
sub-05,116,low_activation,incongruent,correct,428
sub-05,117,low_activation,congruent,correct,512
sub-05,118,low_activation,incongruent,correct,464
sub-05,119,low_activation,incongruent,correct,536
sub-05,120,low_activation,congruent,correct,352
sub-05,121,low_activation,congruent,correct,462
sub-05,122,low_activation,incongruent,correct,498
sub-05,123,low_activation,incongruent,correct,514
sub-05,124,low_activation,incongruent,correct,483
sub-05,125,low_activation,incongruent,correct,502
sub-05,126,low_activation,congruent,correct,404
sub-05,127,low_activation,incongruent,correct,647
sub-05,128,low_activation,incongruent,correct,535
sub-05,129,low_activation,incongruent,correct,526
sub-05,130,low_activation,congruent,correct,365
sub-05,131,low_activation,congruent,correct,418
sub-05,132,low_activation,incongruent,correct,510
sub-05,133,low_activation,incongruent,correct,416
sub-05,134,low_activation,congruent,correct,407
sub-05,135,low_activation,incongruent,correct,404
sub-05,136,low_activation,congruent,correct,320
sub-05,137,low_activation,congruent,correct,346
sub-05,138,low_activation,congruent,correct,314
sub-05,139,low_activation,incongruent,correct,628
sub-05,140,low_activation,incongruent,correct,522
sub-05,141,low_activation,incongruent,correct,401
sub-05,142,low_activation,congruent,correct,396
sub-05,143,low_activation,incongruent,incorrect,348
sub-05,144,low_activation,incongruent,correct,476
sub-05,145,low_activation,congruent,correct,422
sub-05,146,low_activation,congruent,correct,341
sub-05,147,low_activation,incongruent,correct,512
sub-05,148,low_activation,incongruent,correct,518
sub-05,149,low_activation,congruent,correct,578
sub-05,150,low_activation,congruent,correct,637
sub-05,151,low_activation,incongruent,correct,458
sub-05,152,low_activation,congruent,correct,408
sub-05,153,low_activation,congruent,correct,393
sub-05,154,low_activation,incongruent,correct,532
sub-05,155,low_activation,congruent,correct,345
sub-05,156,low_activation,congruent,correct,353
sub-05,157,low_activation,incongruent,correct,381
sub-05,158,low_activation,congruent,correct,467
sub-05,159,low_activation,incongruent,correct,533
sub-05,160,low_activation,incongruent,correct,344
sub-05,161,low_activation,incongruent,correct,441
sub-05,162,low_activation,incongruent,correct,469
sub-05,163,low_activation,incongruent,correct,476
sub-05,164,low_activation,congruent,correct,426
sub-05,165,low_activation,congruent,correct,354
sub-05,166,low_activation,congruent,correct,327
sub-05,167,low_activation,congruent,correct,290
sub-05,168,low_activation,incongruent,correct,350
sub-05,169,low_activation,congruent,correct,261
sub-05,170,low_activation,congruent,correct,304
sub-05,171,low_activation,incongruent,correct,533
sub-05,172,low_activation,congruent,correct,498
sub-05,173,low_activation,incongruent,correct,499
sub-05,174,low_activation,congruent,correct,515
sub-05,175,low_activation,incongruent,correct,399
sub-05,176,low_activation,congruent,correct,462
sub-05,177,low_activation,congruent,correct,420
sub-05,178,low_activation,incongruent,correct,464
sub-05,179,low_activation,congruent,correct,535
sub-05,180,low_activation,congruent,correct,260
sub-05,181,low_activation,congruent,correct,421
sub-05,182,low_activation,congruent,correct,573
sub-05,183,low_activation,congruent,correct,296
sub-05,184,low_activation,congruent,correct,395
sub-05,185,low_activation,congruent,correct,393
sub-05,186,low_activation,congruent,correct,376
sub-05,187,low_activation,congruent,correct,287
sub-05,188,low_activation,congruent,correct,414
sub-05,189,low_activation,congruent,correct,435
sub-05,190,low_activation,congruent,correct,380
sub-05,191,low_activation,incongruent,correct,590
sub-05,192,low_activation,congruent,correct,294
sub-05,193,low_activation,incongruent,correct,493
sub-05,194,low_activation,congruent,correct,333
sub-05,195,low_activation,congruent,correct,520
sub-05,196,low_activation,incongruent,correct,595
sub-05,197,low_activation,incongruent,correct,336
sub-05,198,low_activation,congruent,correct,516
sub-05,199,low_activation,incongruent,correct,507
sub-05,200,low_activation,congruent,correct,424
sub-05,201,low_activation,incongruent,correct,432
sub-05,202,low_activation,congruent,correct,601
sub-05,203,low_activation,incongruent,correct,485
sub-05,204,low_activation,congruent,correct,480
sub-05,205,low_activation,incongruent,correct,461
sub-05,206,low_activation,incongruent,correct,393
sub-05,207,low_activation,incongruent,correct,432
sub-05,208,low_activation,congruent,correct,518
sub-05,209,low_activation,incongruent,correct,372
sub-05,210,low_activation,congruent,correct,605
sub-05,211,low_activation,congruent,correct,337
sub-05,212,low_activation,congruent,correct,486
sub-05,213,low_activation,incongruent,correct,332
sub-05,214,low_activation,congruent,correct,479
sub-05,215,low_activation,congruent,correct,365
sub-05,216,low_activation,incongruent,correct,556
sub-05,217,low_activation,congruent,correct,340
sub-05,218,low_activation,incongruent,correct,563
sub-05,219,low_activation,congruent,correct,540
sub-05,220,low_activation,congruent,correct,668
sub-05,221,low_activation,incongruent,correct,460
sub-05,222,low_activation,incongruent,correct,448
sub-05,223,low_activation,incongruent,correct,513
sub-05,224,low_activation,congruent,correct,424
sub-05,225,low_activation,incongruent,correct,485
sub-05,226,low_activation,congruent,correct,740
sub-05,227,low_activation,congruent,correct,515
sub-05,228,low_activation,incongruent,correct,306
sub-05,229,low_activation,congruent,correct,332
sub-05,230,low_activation,incongruent,correct,378
sub-05,231,low_activation,congruent,correct,558
sub-05,232,low_activation,incongruent,correct,472
sub-05,233,low_activation,congruent,correct,546
sub-05,234,low_activation,incongruent,correct,401
sub-05,235,low_activation,congruent,correct,486
sub-05,236,low_activation,congruent,correct,325
sub-05,237,low_activation,incongruent,correct,466
sub-05,238,low_activation,congruent,correct,343
sub-05,239,low_activation,congruent,correct,366
sub-05,240,low_activation,incongruent,correct,586
sub-05,241,low_activation,congruent,incorrect,489
sub-05,242,low_activation,incongruent,correct,527
sub-05,243,low_activation,incongruent,correct,367
sub-05,244,low_activation,congruent,correct,358
sub-05,245,low_activation,congruent,correct,312
sub-05,246,low_activation,incongruent,correct,517
sub-05,247,low_activation,congruent,correct,278
sub-05,248,low_activation,incongruent,correct,534
sub-05,249,low_activation,incongruent,correct,390
sub-05,250,low_activation,incongruent,correct,435
sub-05,251,low_activation,congruent,correct,429
sub-05,252,low_activation,incongruent,correct,382
sub-05,253,low_activation,congruent,correct,269
sub-05,254,low_activation,congruent,correct,443
sub-05,255,low_activation,incongruent,correct,527
sub-05,256,low_activation,incongruent,correct,480
sub-05,257,low_activation,congruent,correct,409
sub-05,258,low_activation,incongruent,correct,471
sub-05,259,low_activation,incongruent,correct,423
sub-05,260,low_activation,incongruent,correct,430
sub-05,261,low_activation,incongruent,correct,381
sub-05,262,low_activation,congruent,correct,351
sub-05,263,low_activation,incongruent,correct,486
sub-05,264,low_activation,congruent,correct,468
sub-05,265,low_activation,congruent,correct,512
sub-05,266,low_activation,incongruent,correct,659
sub-05,267,low_activation,congruent,correct,465
sub-05,268,low_activation,incongruent,correct,610
sub-05,269,low_activation,incongruent,correct,916
sub-05,270,low_activation,congruent,correct,475
sub-05,271,low_activation,incongruent,correct,463
sub-05,272,low_activation,congruent,correct,442
sub-05,273,low_activation,incongruent,correct,534
sub-05,274,low_activation,congruent,correct,411
sub-05,275,low_activation,incongruent,correct,507
sub-05,276,low_activation,congruent,correct,372
sub-05,277,low_activation,congruent,correct,466
sub-05,278,low_activation,congruent,correct,421
sub-05,279,low_activation,incongruent,correct,407
sub-05,280,low_activation,congruent,correct,470
sub-05,281,low_activation,incongruent,correct,176
sub-05,282,low_activation,incongruent,correct,504
sub-05,283,low_activation,incongruent,correct,458
sub-05,284,low_activation,incongruent,correct,442
sub-05,285,low_activation,incongruent,correct,465
sub-05,286,low_activation,congruent,correct,381
sub-05,287,low_activation,incongruent,correct,426
sub-05,288,low_activation,incongruent,correct,408
sub-05,289,low_activation,incongruent,correct,454
sub-05,290,low_activation,congruent,correct,447
sub-05,291,low_activation,congruent,correct,473
sub-05,292,low_activation,incongruent,correct,433
sub-05,293,low_activation,congruent,correct,470
sub-05,294,low_activation,incongruent,correct,597
sub-05,295,low_activation,incongruent,correct,484
sub-05,296,low_activation,incongruent,correct,486
sub-05,297,low_activation,incongruent,correct,440
sub-05,298,low_activation,incongruent,correct,400
sub-05,299,low_activation,congruent,correct,352
sub-05,300,low_activation,congruent,correct,347
sub-05,301,low_activation,incongruent,correct,484
sub-05,302,low_activation,congruent,correct,524
sub-05,303,low_activation,congruent,correct,391
sub-05,304,low_activation,congruent,correct,435
sub-05,305,low_activation,congruent,incorrect,432
sub-05,306,low_activation,incongruent,correct,409
sub-05,307,low_activation,incongruent,correct,622
sub-05,308,low_activation,incongruent,correct,554
sub-05,309,low_activation,incongruent,correct,539
sub-05,310,low_activation,incongruent,correct,482
sub-05,311,low_activation,incongruent,correct,483
sub-05,312,low_activation,incongruent,correct,486
sub-05,313,low_activation,congruent,correct,292
sub-05,314,low_activation,congruent,correct,335
sub-05,315,low_activation,congruent,correct,300
sub-05,316,low_activation,congruent,correct,338
sub-05,317,low_activation,incongruent,correct,386
sub-05,318,low_activation,incongruent,correct,370
sub-05,319,low_activation,congruent,correct,370
sub-05,320,low_activation,congruent,correct,340
sub-05,321,low_activation,incongruent,correct,364
sub-05,322,low_activation,congruent,correct,321
sub-05,323,low_activation,congruent,correct,417
sub-05,324,low_activation,incongruent,correct,528
sub-05,325,low_activation,congruent,correct,498
sub-05,326,low_activation,congruent,correct,296
sub-05,327,low_activation,congruent,correct,440
sub-05,328,low_activation,incongruent,incorrect,376
sub-05,329,low_activation,congruent,correct,370
sub-05,330,low_activation,congruent,correct,262
sub-05,331,low_activation,congruent,correct,342
sub-05,332,low_activation,incongruent,correct,558
sub-05,333,low_activation,congruent,correct,442
sub-05,334,low_activation,congruent,correct,420
sub-05,335,low_activation,incongruent,correct,437
sub-05,336,low_activation,congruent,correct,462
sub-05,337,low_activation,incongruent,correct,261
sub-05,338,low_activation,congruent,correct,266
sub-05,339,low_activation,incongruent,correct,360
sub-05,340,low_activation,congruent,correct,466
sub-05,341,low_activation,incongruent,correct,463
sub-05,342,low_activation,congruent,correct,436
sub-05,343,low_activation,congruent,correct,430
sub-05,344,low_activation,congruent,correct,364
sub-05,345,low_activation,incongruent,correct,413
sub-05,346,low_activation,incongruent,correct,512
sub-05,347,low_activation,congruent,correct,637
sub-05,348,low_activation,incongruent,correct,352
sub-05,349,low_activation,incongruent,correct,424
sub-05,350,low_activation,congruent,correct,492
sub-05,351,low_activation,incongruent,correct,505
sub-05,352,low_activation,incongruent,correct,479
sub-05,353,low_activation,congruent,correct,414
sub-05,354,low_activation,incongruent,correct,437
sub-05,355,low_activation,incongruent,correct,439
sub-05,356,low_activation,congruent,incorrect,469
sub-05,357,low_activation,incongruent,correct,545
sub-05,358,low_activation,incongruent,correct,474
sub-05,359,low_activation,incongruent,correct,459
sub-05,360,low_activation,congruent,correct,415
sub-05,361,low_activation,incongruent,correct,512
sub-05,362,low_activation,congruent,correct,515
sub-05,363,low_activation,incongruent,correct,470
sub-05,364,low_activation,congruent,correct,366
sub-05,365,low_activation,incongruent,correct,590
sub-05,366,low_activation,congruent,correct,308
sub-05,367,low_activation,incongruent,correct,422
sub-05,368,low_activation,incongruent,correct,381
sub-05,369,low_activation,congruent,correct,561
sub-05,370,low_activation,incongruent,correct,456
sub-05,371,low_activation,incongruent,correct,485
sub-05,372,low_activation,congruent,correct,400
sub-05,373,low_activation,incongruent,correct,550
sub-05,374,low_activation,congruent,correct,452
sub-05,375,low_activation,congruent,correct,349
sub-05,376,low_activation,incongruent,correct,529
sub-05,377,low_activation,incongruent,correct,464
sub-05,378,low_activation,incongruent,correct,591
sub-05,379,low_activation,congruent,correct,368
sub-05,380,low_activation,congruent,correct,576
sub-05,381,low_activation,congruent,correct,365
sub-05,382,low_activation,incongruent,correct,384
sub-05,383,low_activation,congruent,correct,458
sub-05,384,low_activation,incongruent,correct,554
sub-05,385,low_activation,congruent,correct,406
sub-05,386,low_activation,congruent,correct,411
sub-05,387,low_activation,incongruent,correct,363
sub-05,388,low_activation,congruent,correct,566
sub-05,389,low_activation,congruent,correct,365
sub-05,390,low_activation,congruent,correct,493
sub-05,391,low_activation,incongruent,correct,422
sub-05,392,low_activation,incongruent,correct,512
sub-05,393,low_activation,congruent,correct,478
sub-05,394,low_activation,incongruent,correct,680
sub-05,395,low_activation,incongruent,correct,350
sub-05,396,low_activation,incongruent,correct,531
sub-05,397,low_activation,incongruent,correct,490
sub-05,398,low_activation,incongruent,correct,552
sub-05,399,low_activation,congruent,correct,445
sub-05,400,low_activation,congruent,correct,516
sub-05,401,low_activation,incongruent,correct,410
sub-05,402,low_activation,incongruent,correct,408
sub-05,403,low_activation,congruent,correct,522
sub-05,404,low_activation,congruent,correct,429
sub-05,405,low_activation,incongruent,correct,501
sub-05,406,low_activation,congruent,correct,415
sub-05,407,low_activation,congruent,correct,694
sub-05,408,low_activation,incongruent,correct,483
sub-05,409,low_activation,congruent,correct,408
sub-05,410,low_activation,congruent,correct,331
sub-05,411,low_activation,congruent,correct,509
sub-05,412,low_activation,incongruent,correct,391
sub-05,413,low_activation,incongruent,correct,487
sub-05,414,low_activation,congruent,correct,386
sub-05,415,low_activation,incongruent,correct,410
sub-05,416,low_activation,incongruent,correct,415
sub-05,417,low_activation,congruent,correct,370
sub-05,418,low_activation,incongruent,correct,433
sub-05,419,low_activation,incongruent,correct,490
sub-05,420,low_activation,congruent,correct,407
sub-05,421,low_activation,congruent,correct,490
sub-05,422,low_activation,congruent,correct,275
sub-05,423,low_activation,incongruent,correct,330
sub-05,424,low_activation,congruent,correct,349
sub-05,425,low_activation,incongruent,correct,430
sub-05,426,low_activation,incongruent,correct,329
sub-05,427,low_activation,incongruent,correct,541
sub-05,428,low_activation,incongruent,correct,443
sub-05,429,low_activation,incongruent,correct,573
sub-05,430,low_activation,congruent,correct,473
sub-05,431,low_activation,incongruent,correct,474
sub-05,432,low_activation,incongruent,correct,432
sub-05,433,low_activation,congruent,correct,733
sub-05,434,low_activation,congruent,correct,448
sub-05,435,low_activation,incongruent,correct,444
sub-05,436,low_activation,incongruent,correct,480
sub-05,437,low_activation,congruent,correct,687
sub-05,438,low_activation,incongruent,correct,467
sub-05,439,low_activation,congruent,correct,408
sub-05,440,low_activation,incongruent,correct,498
sub-05,441,low_activation,congruent,correct,433
sub-05,442,low_activation,congruent,correct,538
sub-05,443,low_activation,incongruent,incorrect,324
sub-05,444,low_activation,incongruent,correct,502
sub-05,445,low_activation,incongruent,correct,607
sub-05,446,low_activation,congruent,correct,519
sub-05,447,low_activation,incongruent,correct,479
sub-05,448,low_activation,congruent,correct,340
sub-05,449,low_activation,congruent,correct,296
sub-05,450,low_activation,congruent,correct,537
sub-05,451,low_activation,congruent,correct,315
sub-05,452,low_activation,incongruent,correct,468
sub-05,453,low_activation,congruent,correct,424
sub-05,454,low_activation,congruent,correct,534
sub-05,455,low_activation,congruent,correct,696
sub-05,456,low_activation,incongruent,correct,464
sub-05,457,low_activation,incongruent,correct,680
sub-05,458,low_activation,incongruent,correct,473
sub-05,459,low_activation,congruent,correct,389
sub-05,460,low_activation,incongruent,correct,378
sub-05,461,low_activation,congruent,correct,362
sub-05,462,low_activation,incongruent,correct,407
sub-05,463,low_activation,incongruent,correct,522
sub-05,464,low_activation,incongruent,correct,424
sub-05,465,low_activation,congruent,correct,570
sub-05,466,low_activation,incongruent,correct,517
sub-05,467,low_activation,congruent,correct,432
sub-05,468,low_activation,incongruent,correct,466
sub-05,469,low_activation,incongruent,correct,520
sub-05,470,low_activation,congruent,correct,680
sub-05,471,low_activation,congruent,correct,605
sub-05,472,low_activation,congruent,correct,273
sub-05,473,low_activation,congruent,correct,417
sub-05,474,low_activation,congruent,correct,387
sub-05,475,low_activation,incongruent,correct,512
sub-05,476,low_activation,congruent,correct,487
sub-05,477,low_activation,incongruent,correct,608
sub-05,478,low_activation,congruent,correct,326
sub-05,479,low_activation,congruent,correct,522
sub-05,480,low_activation,congruent,correct,554
sub-05,481,low_activation,congruent,correct,344
sub-05,482,low_activation,congruent,correct,373
sub-05,483,low_activation,congruent,correct,453
sub-05,484,low_activation,congruent,correct,398
sub-05,485,low_activation,incongruent,correct,677
sub-05,486,low_activation,congruent,correct,440
sub-05,487,low_activation,incongruent,correct,412
sub-05,488,low_activation,incongruent,correct,453
sub-05,489,low_activation,incongruent,correct,331
sub-05,490,low_activation,incongruent,correct,336
sub-05,491,low_activation,congruent,correct,299
sub-05,492,low_activation,congruent,correct,315
sub-05,493,low_activation,incongruent,correct,407
sub-05,494,low_activation,congruent,correct,646
sub-05,495,low_activation,congruent,correct,484
sub-05,496,low_activation,incongruent,correct,637
sub-05,497,low_activation,congruent,correct,384
sub-05,498,low_activation,incongruent,correct,480
sub-05,499,low_activation,congruent,correct,323
sub-05,500,low_activation,congruent,correct,439
sub-05,501,low_activation,congruent,correct,282
sub-05,502,low_activation,incongruent,correct,540
sub-05,503,low_activation,incongruent,correct,478
sub-05,504,low_activation,incongruent,correct,736
sub-05,505,low_activation,congruent,correct,484
sub-05,506,low_activation,incongruent,incorrect,224
sub-05,507,low_activation,incongruent,correct,493
sub-05,508,low_activation,congruent,correct,447
sub-05,509,low_activation,congruent,correct,495
sub-05,510,low_activation,incongruent,correct,430
sub-05,511,low_activation,congruent,correct,499
sub-05,512,low_activation,incongruent,correct,447
sub-05,513,low_activation,incongruent,correct,474
sub-05,514,low_activation,incongruent,correct,489
sub-05,515,low_activation,congruent,correct,284
sub-05,516,low_activation,congruent,correct,407
sub-05,517,low_activation,incongruent,correct,608
sub-05,518,low_activation,incongruent,correct,428
sub-05,519,low_activation,congruent,correct,611
sub-05,520,low_activation,incongruent,correct,436
sub-05,521,low_activation,incongruent,correct,487
sub-05,522,low_activation,incongruent,correct,831
sub-05,523,low_activation,congruent,correct,441
sub-05,524,low_activation,incongruent,correct,502
sub-05,525,low_activation,congruent,correct,411
sub-05,526,low_activation,congruent,correct,399
sub-05,527,low_activation,incongruent,correct,496
sub-05,528,low_activation,congruent,correct,462
sub-05,529,low_activation,congruent,correct,341
sub-05,530,low_activation,congruent,correct,479
sub-05,531,low_activation,congruent,correct,283
sub-05,532,low_activation,congruent,correct,508
sub-05,533,low_activation,incongruent,correct,520
sub-05,534,low_activation,incongruent,correct,636
sub-05,535,low_activation,incongruent,correct,444
sub-05,536,low_activation,incongruent,correct,527
sub-05,537,low_activation,incongruent,correct,461
sub-05,538,low_activation,incongruent,correct,526
sub-05,539,low_activation,congruent,correct,438
sub-05,540,low_activation,congruent,correct,443
sub-05,541,low_activation,congruent,correct,423
sub-05,542,low_activation,incongruent,correct,493
sub-05,543,low_activation,congruent,correct,311
sub-05,544,low_activation,congruent,correct,487
sub-05,545,low_activation,incongruent,correct,485
sub-05,546,low_activation,congruent,correct,489
sub-05,547,low_activation,incongruent,correct,526
sub-05,548,low_activation,incongruent,correct,450
sub-05,549,low_activation,incongruent,correct,668
sub-05,550,low_activation,congruent,correct,352
sub-05,551,low_activation,incongruent,correct,582
sub-05,552,low_activation,incongruent,correct,556
sub-05,553,low_activation,congruent,correct,484
sub-05,554,low_activation,incongruent,correct,620
sub-05,555,low_activation,incongruent,correct,559
sub-05,556,low_activation,incongruent,correct,355
sub-05,557,low_activation,incongruent,correct,438
sub-05,558,low_activation,incongruent,correct,473
sub-05,559,low_activation,congruent,correct,312
sub-05,560,low_activation,congruent,correct,518
sub-05,561,low_activation,congruent,correct,272
sub-05,562,low_activation,congruent,correct,537
sub-05,563,low_activation,incongruent,correct,506
sub-05,564,low_activation,congruent,correct,786
sub-05,565,low_activation,incongruent,correct,425
sub-05,566,low_activation,incongruent,correct,459
sub-05,567,low_activation,congruent,correct,400
sub-05,568,low_activation,congruent,correct,461
sub-05,569,low_activation,congruent,correct,517
sub-05,570,low_activation,incongruent,correct,499
sub-05,571,low_activation,incongruent,correct,340
sub-05,572,low_activation,congruent,correct,262
sub-05,573,low_activation,incongruent,correct,404
sub-05,574,low_activation,incongruent,correct,320
sub-05,575,low_activation,incongruent,correct,536
sub-05,576,low_activation,congruent,correct,381
sub-05,577,low_activation,congruent,correct,334
sub-05,578,low_activation,incongruent,correct,578
sub-05,579,low_activation,incongruent,correct,577
sub-05,580,low_activation,congruent,correct,410
sub-05,581,low_activation,congruent,correct,321
sub-05,582,low_activation,incongruent,correct,553
sub-05,583,low_activation,incongruent,correct,426
sub-05,584,low_activation,incongruent,correct,490
sub-05,585,low_activation,incongruent,correct,428
sub-05,586,low_activation,incongruent,correct,416
sub-05,587,low_activation,incongruent,correct,490
sub-05,588,low_activation,congruent,correct,424
sub-05,589,low_activation,incongruent,correct,598
sub-05,590,low_activation,congruent,correct,411
sub-05,591,low_activation,congruent,incorrect,352
sub-05,592,low_activation,congruent,correct,436
sub-05,593,low_activation,congruent,correct,322
sub-05,594,low_activation,incongruent,correct,406
sub-05,595,low_activation,congruent,correct,396
sub-05,596,low_activation,incongruent,correct,519
sub-05,597,low_activation,incongruent,correct,332
sub-05,598,low_activation,congruent,correct,305
sub-05,599,low_activation,congruent,correct,455
sub-05,600,low_activation,incongruent,correct,349
sub-05,601,low_activation,congruent,correct,471
sub-05,602,low_activation,congruent,correct,420
sub-05,603,low_activation,congruent,correct,362
sub-05,604,low_activation,congruent,correct,393
sub-05,605,low_activation,congruent,correct,454
sub-05,606,low_activation,congruent,correct,414
sub-05,607,low_activation,incongruent,correct,582
sub-05,608,low_activation,incongruent,correct,652
sub-05,609,low_activation,incongruent,correct,302
sub-05,610,low_activation,congruent,incorrect,450
sub-05,611,low_activation,congruent,correct,498
sub-05,612,low_activation,congruent,correct,430
sub-05,613,low_activation,incongruent,correct,565
sub-05,614,low_activation,congruent,correct,657
sub-05,615,low_activation,incongruent,correct,318
sub-05,616,low_activation,incongruent,correct,413
sub-05,617,low_activation,incongruent,incorrect,515
sub-05,618,low_activation,incongruent,correct,516
sub-05,619,low_activation,congruent,correct,338
sub-05,620,low_activation,congruent,correct,618
sub-05,621,low_activation,congruent,correct,385
sub-05,622,low_activation,congruent,correct,537
sub-05,623,low_activation,congruent,correct,572
sub-05,624,low_activation,incongruent,correct,482
sub-05,625,low_activation,incongruent,correct,434
sub-05,626,low_activation,incongruent,correct,448
sub-05,627,low_activation,congruent,correct,510
sub-05,628,low_activation,congruent,correct,310
sub-05,629,low_activation,congruent,correct,347
sub-05,630,low_activation,congruent,correct,324
sub-05,631,low_activation,congruent,correct,741
sub-05,632,low_activation,incongruent,incorrect,247
sub-05,633,low_activation,congruent,correct,436
sub-05,634,low_activation,incongruent,correct,537
sub-05,635,low_activation,congruent,correct,378
sub-05,636,low_activation,incongruent,correct,536
sub-05,637,low_activation,incongruent,correct,484
sub-05,638,low_activation,incongruent,correct,417
sub-05,639,low_activation,congruent,correct,265
sub-05,640,low_activation,incongruent,correct,422
sub-05,641,low_activation,congruent,correct,372
sub-05,642,low_activation,incongruent,correct,469
sub-05,643,low_activation,incongruent,correct,392
sub-05,644,low_activation,incongruent,correct,455
sub-05,645,low_activation,congruent,correct,453
sub-05,646,low_activation,congruent,correct,334
sub-05,647,low_activation,incongruent,incorrect,328
sub-05,648,low_activation,incongruent,correct,450
sub-05,649,low_activation,incongruent,correct,460
sub-05,650,low_activation,incongruent,correct,469
sub-05,651,low_activation,congruent,correct,305
sub-05,652,low_activation,incongruent,correct,560
sub-05,653,low_activation,incongruent,correct,421
sub-05,654,low_activation,incongruent,correct,365
sub-05,655,low_activation,incongruent,correct,501
sub-05,656,low_activation,incongruent,correct,464
sub-05,657,low_activation,incongruent,correct,418
sub-05,658,low_activation,congruent,correct,359
sub-05,659,low_activation,incongruent,correct,492
sub-05,660,low_activation,congruent,correct,472
sub-05,661,low_activation,congruent,correct,372
sub-05,662,low_activation,incongruent,correct,760
sub-05,663,low_activation,congruent,correct,547
sub-05,664,low_activation,congruent,correct,509
sub-05,665,low_activation,congruent,correct,413
sub-05,666,low_activation,congruent,correct,400
sub-05,667,low_activation,congruent,correct,444
sub-05,668,low_activation,incongruent,correct,402
sub-05,669,low_activation,incongruent,correct,431
sub-05,670,low_activation,congruent,correct,494
sub-05,671,low_activation,congruent,correct,352
sub-05,672,low_activation,congruent,correct,481
sub-05,673,low_activation,congruent,correct,324
sub-05,674,low_activation,congruent,correct,454
sub-05,675,low_activation,incongruent,correct,449
sub-05,676,low_activation,congruent,correct,494
sub-05,677,low_activation,congruent,correct,485
sub-05,678,low_activation,congruent,correct,622
sub-05,679,low_activation,incongruent,correct,597
sub-05,680,low_activation,congruent,correct,332
sub-05,681,low_activation,incongruent,correct,519
sub-05,682,low_activation,incongruent,correct,422
sub-05,683,low_activation,incongruent,correct,360
sub-05,684,low_activation,incongruent,correct,360
sub-05,685,low_activation,incongruent,correct,435
sub-05,686,low_activation,incongruent,correct,378
sub-05,687,low_activation,incongruent,correct,273
sub-05,688,low_activation,incongruent,correct,535
sub-05,689,low_activation,incongruent,correct,324
sub-05,690,low_activation,incongruent,correct,323
sub-05,691,low_activation,congruent,correct,500
sub-05,692,low_activation,incongruent,correct,409
sub-05,693,low_activation,incongruent,correct,546
sub-05,694,low_activation,congruent,correct,460
sub-05,695,low_activation,congruent,correct,290
sub-05,696,low_activation,congruent,correct,278
sub-05,697,low_activation,congruent,correct,338
sub-05,698,low_activation,congruent,correct,378
sub-05,699,low_activation,congruent,correct,228
sub-05,700,low_activation,congruent,correct,322
sub-05,701,low_activation,congruent,correct,276
sub-05,702,low_activation,congruent,correct,246
sub-05,703,low_activation,congruent,correct,428
sub-05,704,low_activation,congruent,correct,313
sub-05,705,low_activation,incongruent,incorrect,369
sub-05,706,low_activation,incongruent,correct,422
sub-05,707,low_activation,incongruent,correct,596
sub-05,708,low_activation,congruent,correct,402
sub-05,709,low_activation,congruent,correct,310
sub-05,710,low_activation,congruent,correct,627
sub-05,711,low_activation,incongruent,correct,578
sub-05,712,low_activation,incongruent,correct,470
sub-05,713,low_activation,congruent,correct,449
sub-05,714,low_activation,congruent,correct,413
sub-05,715,low_activation,congruent,correct,258
sub-05,716,low_activation,incongruent,correct,452
sub-05,717,low_activation,incongruent,correct,578
sub-05,718,low_activation,incongruent,correct,770
sub-05,719,low_activation,congruent,correct,522
sub-05,720,low_activation,incongruent,correct,476
sub-05,721,low_activation,incongruent,correct,305
sub-05,722,low_activation,incongruent,correct,328
sub-05,723,low_activation,congruent,correct,380
sub-05,724,low_activation,incongruent,correct,504
sub-05,725,low_activation,incongruent,correct,553
sub-05,726,low_activation,incongruent,correct,551
sub-05,727,low_activation,incongruent,correct,373
sub-05,728,low_activation,incongruent,correct,422
sub-05,729,low_activation,incongruent,correct,369
sub-05,730,low_activation,congruent,correct,308
sub-05,731,low_activation,incongruent,correct,522
sub-05,732,low_activation,incongruent,correct,604
sub-05,733,low_activation,incongruent,correct,560
sub-05,734,low_activation,congruent,correct,430
sub-05,735,low_activation,incongruent,correct,624
sub-05,736,low_activation,congruent,correct,387
sub-05,737,low_activation,incongruent,correct,432
sub-05,738,low_activation,congruent,correct,312
sub-05,739,low_activation,congruent,correct,918
sub-05,740,low_activation,incongruent,correct,530
sub-05,741,low_activation,incongruent,correct,438
sub-05,742,low_activation,congruent,correct,418
sub-05,743,low_activation,incongruent,correct,484
sub-05,744,low_activation,incongruent,correct,440
sub-05,745,low_activation,incongruent,correct,396
sub-05,746,low_activation,congruent,correct,300
sub-05,747,low_activation,incongruent,correct,341
sub-05,748,low_activation,congruent,correct,456
sub-05,749,low_activation,congruent,correct,292
sub-05,750,low_activation,incongruent,correct,330
sub-05,751,low_activation,congruent,correct,425
sub-05,752,low_activation,incongruent,correct,416
sub-05,753,low_activation,incongruent,correct,368
sub-05,754,low_activation,incongruent,correct,486
sub-05,755,low_activation,congruent,correct,366
sub-05,756,low_activation,incongruent,correct,322
sub-05,757,low_activation,incongruent,correct,298
sub-05,758,low_activation,incongruent,correct,368
sub-05,759,low_activation,congruent,correct,409
sub-05,760,low_activation,incongruent,correct,349
sub-05,761,low_activation,incongruent,correct,421
sub-05,762,low_activation,incongruent,correct,338
sub-05,763,low_activation,congruent,correct,435
sub-05,764,low_activation,congruent,correct,443
sub-05,765,low_activation,incongruent,correct,548
sub-05,766,low_activation,incongruent,correct,366
sub-05,767,low_activation,congruent,correct,416
sub-05,768,low_activation,congruent,correct,381
sub-05,769,low_activation,incongruent,correct,508
sub-05,770,low_activation,incongruent,correct,455
sub-05,771,low_activation,congruent,correct,322
sub-05,772,low_activation,incongruent,correct,550
sub-05,773,low_activation,congruent,correct,324
sub-05,774,low_activation,congruent,correct,452
sub-05,775,low_activation,incongruent,correct,576
sub-05,776,low_activation,congruent,correct,507
sub-05,777,low_activation,incongruent,correct,626
sub-05,778,low_activation,congruent,correct,328
sub-05,779,low_activation,incongruent,correct,418
sub-05,780,low_activation,incongruent,correct,419
sub-05,781,low_activation,incongruent,correct,452
sub-05,782,low_activation,incongruent,correct,420
sub-05,783,low_activation,congruent,correct,464
sub-05,784,low_activation,congruent,correct,494
sub-05,785,low_activation,congruent,correct,476
sub-05,786,low_activation,incongruent,correct,566
sub-05,787,low_activation,congruent,correct,725
sub-05,788,low_activation,incongruent,correct,679
sub-05,789,low_activation,congruent,correct,265
sub-05,790,low_activation,congruent,correct,496
sub-05,791,low_activation,incongruent,correct,808
sub-05,792,low_activation,congruent,correct,816
sub-05,793,low_activation,congruent,correct,576
sub-05,794,low_activation,congruent,correct,496
sub-05,795,low_activation,congruent,correct,286
sub-05,796,low_activation,congruent,correct,420
sub-05,797,low_activation,congruent,correct,307
sub-05,798,low_activation,incongruent,correct,632
sub-05,799,low_activation,incongruent,correct,539
sub-05,800,low_activation,incongruent,correct,508
sub-05,801,low_activation,congruent,incorrect,480
sub-05,802,low_activation,incongruent,correct,486
sub-05,803,low_activation,incongruent,correct,421
sub-05,804,low_activation,congruent,correct,427
sub-05,805,low_activation,incongruent,correct,515
sub-05,806,low_activation,incongruent,correct,455
