sub_ID,trial_number,physical_activation,trial_congruency,resp_correctness,reaction_times
sub-07,1,high_activation,congruent,correct,984
sub-07,2,high_activation,congruent,correct,607
sub-07,3,high_activation,incongruent,correct,769
sub-07,4,high_activation,congruent,correct,517
sub-07,5,high_activation,congruent,correct,453
sub-07,6,high_activation,incongruent,correct,643
sub-07,7,high_activation,incongruent,correct,739
sub-07,8,high_activation,incongruent,correct,535
sub-07,9,high_activation,congruent,correct,480
sub-07,10,high_activation,incongruent,correct,752
sub-07,11,high_activation,incongruent,correct,603
sub-07,12,high_activation,incongruent,correct,552
sub-07,13,high_activation,congruent,correct,483
sub-07,14,high_activation,incongruent,correct,615
sub-07,15,high_activation,congruent,correct,493
sub-07,16,high_activation,congruent,correct,589
sub-07,17,high_activation,incongruent,correct,663
sub-07,18,high_activation,congruent,correct,525
sub-07,19,high_activation,congruent,correct,611
sub-07,20,high_activation,incongruent,correct,531
sub-07,21,high_activation,incongruent,correct,743
sub-07,22,high_activation,congruent,correct,671
sub-07,23,high_activation,congruent,correct,459
sub-07,24,high_activation,incongruent,correct,543
sub-07,25,high_activation,congruent,correct,511
sub-07,26,high_activation,congruent,correct,529
sub-07,27,high_activation,congruent,correct,529
sub-07,28,high_activation,congruent,correct,453
sub-07,29,high_activation,incongruent,correct,730
sub-07,30,high_activation,congruent,correct,541
sub-07,31,high_activation,incongruent,correct,917
sub-07,32,high_activation,congruent,correct,581
sub-07,33,high_activation,congruent,correct,509
sub-07,34,high_activation,incongruent,correct,539
sub-07,35,high_activation,congruent,correct,503
sub-07,36,high_activation,congruent,correct,523
sub-07,37,high_activation,incongruent,correct,807
sub-07,38,high_activation,incongruent,correct,839
sub-07,39,high_activation,incongruent,correct,629
sub-07,40,high_activation,congruent,correct,500
sub-07,41,high_activation,incongruent,correct,633
sub-07,42,high_activation,congruent,incorrect,885
sub-07,43,high_activation,congruent,correct,421
sub-07,44,high_activation,congruent,correct,691
sub-07,45,high_activation,congruent,correct,577
sub-07,46,high_activation,incongruent,correct,836
sub-07,47,high_activation,incongruent,correct,660
sub-07,48,high_activation,congruent,correct,1055
sub-07,49,high_activation,incongruent,correct,709
sub-07,50,high_activation,congruent,correct,608
sub-07,51,high_activation,incongruent,correct,875
sub-07,52,high_activation,congruent,correct,603
sub-07,53,high_activation,incongruent,correct,455
sub-07,54,high_activation,incongruent,correct,535
sub-07,55,high_activation,congruent,correct,477
sub-07,56,high_activation,congruent,correct,709
sub-07,57,high_activation,congruent,correct,759
sub-07,58,high_activation,incongruent,correct,763
sub-07,59,high_activation,congruent,correct,589
sub-07,60,high_activation,incongruent,correct,620
sub-07,61,high_activation,incongruent,correct,771
sub-07,62,high_activation,congruent,correct,645
sub-07,63,high_activation,congruent,correct,489
sub-07,64,high_activation,incongruent,correct,589
sub-07,65,high_activation,congruent,correct,763
sub-07,66,high_activation,incongruent,correct,523
sub-07,67,high_activation,congruent,correct,569
sub-07,68,high_activation,congruent,correct,471
sub-07,69,high_activation,congruent,correct,447
sub-07,70,high_activation,congruent,correct,597
sub-07,71,high_activation,congruent,correct,375
sub-07,72,high_activation,incongruent,correct,553
sub-07,73,high_activation,congruent,correct,705
sub-07,74,high_activation,incongruent,correct,729
sub-07,75,high_activation,congruent,correct,1077
sub-07,76,high_activation,incongruent,correct,419
sub-07,77,high_activation,congruent,correct,339
sub-07,78,high_activation,congruent,correct,467
sub-07,79,high_activation,congruent,correct,473
sub-07,80,high_activation,congruent,correct,477
sub-07,81,high_activation,congruent,correct,460
sub-07,82,high_activation,incongruent,correct,691
sub-07,83,high_activation,incongruent,correct,473
sub-07,84,high_activation,congruent,correct,457
sub-07,85,high_activation,incongruent,correct,567
sub-07,86,high_activation,incongruent,correct,624
sub-07,87,high_activation,congruent,correct,645
sub-07,88,high_activation,congruent,correct,943
sub-07,89,high_activation,incongruent,correct,789
sub-07,90,high_activation,incongruent,correct,391
sub-07,91,high_activation,congruent,correct,513
sub-07,92,high_activation,incongruent,correct,797
sub-07,93,high_activation,incongruent,correct,756
sub-07,94,high_activation,incongruent,incorrect,553
sub-07,95,high_activation,incongruent,correct,409
sub-07,96,high_activation,congruent,correct,471
sub-07,97,high_activation,congruent,correct,539
sub-07,98,high_activation,congruent,correct,683
sub-07,99,high_activation,congruent,correct,503
sub-07,100,high_activation,incongruent,correct,631
sub-07,101,high_activation,incongruent,correct,539
sub-07,102,high_activation,congruent,correct,807
sub-07,103,high_activation,congruent,correct,593
sub-07,104,high_activation,congruent,correct,645
sub-07,105,high_activation,congruent,correct,689
sub-07,106,high_activation,incongruent,correct,607
sub-07,107,high_activation,congruent,correct,628
sub-07,108,high_activation,congruent,correct,679
sub-07,109,high_activation,incongruent,correct,655
sub-07,110,high_activation,incongruent,correct,793
sub-07,111,high_activation,congruent,correct,785
sub-07,112,high_activation,incongruent,correct,507
sub-07,113,high_activation,incongruent,correct,585
sub-07,114,high_activation,congruent,correct,707
sub-07,115,high_activation,congruent,correct,680
sub-07,116,high_activation,incongruent,correct,550
sub-07,117,high_activation,incongruent,correct,846
sub-07,118,high_activation,incongruent,correct,960
sub-07,119,high_activation,incongruent,correct,567
sub-07,120,high_activation,congruent,correct,511
sub-07,121,high_activation,congruent,correct,509
sub-07,122,high_activation,congruent,correct,557
sub-07,123,high_activation,incongruent,correct,725
sub-07,124,high_activation,congruent,correct,530
sub-07,125,high_activation,incongruent,correct,567
sub-07,126,high_activation,incongruent,correct,577
sub-07,127,high_activation,congruent,correct,453
sub-07,128,high_activation,incongruent,correct,695
sub-07,129,high_activation,incongruent,correct,494
sub-07,130,high_activation,incongruent,correct,819
sub-07,131,high_activation,incongruent,correct,681
sub-07,132,high_activation,incongruent,correct,636
sub-07,133,high_activation,congruent,correct,593
sub-07,134,high_activation,incongruent,correct,719
sub-07,135,high_activation,congruent,correct,527
sub-07,136,high_activation,congruent,correct,543
sub-07,137,high_activation,incongruent,correct,767
sub-07,138,high_activation,incongruent,correct,491
sub-07,139,high_activation,congruent,correct,465
sub-07,140,high_activation,congruent,correct,437
sub-07,141,high_activation,incongruent,correct,757
sub-07,142,high_activation,incongruent,correct,441
sub-07,143,high_activation,incongruent,correct,441
sub-07,144,high_activation,congruent,correct,563
sub-07,145,high_activation,incongruent,correct,747
sub-07,146,high_activation,incongruent,correct,679
sub-07,147,high_activation,congruent,correct,421
sub-07,148,high_activation,incongruent,correct,647
sub-07,149,high_activation,congruent,correct,503
sub-07,150,high_activation,incongruent,correct,705
sub-07,151,high_activation,incongruent,correct,657
sub-07,152,high_activation,congruent,correct,584
sub-07,153,high_activation,congruent,correct,547
sub-07,154,high_activation,incongruent,correct,537
sub-07,155,high_activation,incongruent,correct,635
sub-07,156,high_activation,congruent,correct,515
sub-07,157,high_activation,incongruent,correct,571
sub-07,158,high_activation,incongruent,correct,719
sub-07,159,high_activation,incongruent,correct,544
sub-07,160,high_activation,congruent,correct,501
sub-07,161,high_activation,congruent,correct,547
sub-07,162,high_activation,incongruent,correct,843
sub-07,163,high_activation,incongruent,correct,665
sub-07,164,high_activation,incongruent,correct,657
sub-07,165,high_activation,congruent,correct,801
sub-07,166,high_activation,congruent,correct,519
sub-07,167,high_activation,incongruent,correct,847
sub-07,168,high_activation,congruent,correct,603
sub-07,169,high_activation,congruent,correct,421
sub-07,170,high_activation,incongruent,correct,801
sub-07,171,high_activation,congruent,correct,585
sub-07,172,high_activation,incongruent,correct,431
sub-07,173,high_activation,incongruent,correct,661
sub-07,174,high_activation,congruent,correct,496
sub-07,175,high_activation,congruent,correct,476
sub-07,176,high_activation,incongruent,correct,779
sub-07,177,high_activation,incongruent,correct,567
sub-07,178,high_activation,incongruent,correct,511
sub-07,179,high_activation,incongruent,correct,713
sub-07,180,high_activation,incongruent,correct,493
sub-07,181,high_activation,incongruent,correct,668
sub-07,182,high_activation,incongruent,correct,499
sub-07,183,high_activation,incongruent,correct,493
sub-07,184,high_activation,congruent,correct,453
sub-07,185,high_activation,incongruent,correct,455
sub-07,186,high_activation,incongruent,correct,471
sub-07,187,high_activation,congruent,correct,617
sub-07,188,high_activation,congruent,correct,647
sub-07,189,high_activation,incongruent,correct,583
sub-07,190,high_activation,congruent,correct,531
sub-07,191,high_activation,incongruent,correct,442
sub-07,192,high_activation,incongruent,correct,555
sub-07,193,high_activation,congruent,correct,603
sub-07,194,high_activation,congruent,correct,691
sub-07,195,high_activation,congruent,correct,497
sub-07,196,high_activation,incongruent,correct,493
sub-07,197,high_activation,congruent,correct,717
sub-07,198,high_activation,incongruent,correct,531
sub-07,199,high_activation,congruent,correct,571
sub-07,200,high_activation,congruent,correct,459
sub-07,201,high_activation,congruent,correct,547
sub-07,202,high_activation,congruent,correct,465
sub-07,203,high_activation,incongruent,correct,583
sub-07,204,high_activation,incongruent,correct,596
sub-07,205,high_activation,congruent,correct,601
sub-07,206,high_activation,incongruent,correct,399
sub-07,207,high_activation,incongruent,correct,719
sub-07,208,high_activation,congruent,correct,691
sub-07,209,high_activation,congruent,correct,863
sub-07,210,high_activation,incongruent,correct,733
sub-07,211,high_activation,congruent,correct,879
sub-07,212,high_activation,incongruent,correct,737
sub-07,213,high_activation,congruent,correct,683
sub-07,214,high_activation,incongruent,correct,752
sub-07,215,high_activation,congruent,correct,473
sub-07,216,high_activation,congruent,correct,582
sub-07,217,high_activation,incongruent,correct,614
sub-07,218,high_activation,incongruent,correct,975
sub-07,219,high_activation,incongruent,correct,779
sub-07,220,high_activation,incongruent,correct,447
sub-07,221,high_activation,congruent,correct,915
sub-07,222,high_activation,incongruent,correct,585
sub-07,223,high_activation,congruent,correct,539
sub-07,224,high_activation,incongruent,correct,837
sub-07,225,high_activation,congruent,correct,547
sub-07,226,high_activation,congruent,correct,523
sub-07,227,high_activation,congruent,correct,637
sub-07,228,high_activation,incongruent,correct,475
sub-07,229,high_activation,incongruent,correct,656
sub-07,230,high_activation,incongruent,correct,667
sub-07,231,high_activation,incongruent,correct,573
sub-07,232,high_activation,incongruent,correct,561
sub-07,233,high_activation,congruent,correct,699
sub-07,234,high_activation,incongruent,correct,815
sub-07,235,high_activation,incongruent,correct,749
sub-07,236,high_activation,incongruent,correct,665
sub-07,237,high_activation,incongruent,correct,613
sub-07,238,high_activation,incongruent,correct,617
sub-07,239,high_activation,congruent,correct,708
sub-07,240,high_activation,congruent,correct,611
sub-07,241,high_activation,incongruent,correct,487
sub-07,242,high_activation,congruent,correct,659
sub-07,243,high_activation,congruent,correct,583
sub-07,244,high_activation,congruent,correct,531
sub-07,245,high_activation,incongruent,correct,881
sub-07,246,high_activation,incongruent,correct,445
sub-07,247,high_activation,incongruent,correct,485
sub-07,248,high_activation,incongruent,correct,519
sub-07,249,high_activation,incongruent,correct,661
sub-07,250,high_activation,congruent,correct,527
sub-07,251,high_activation,incongruent,correct,513
sub-07,252,high_activation,congruent,correct,533
sub-07,253,high_activation,incongruent,correct,495
sub-07,254,high_activation,congruent,correct,737
sub-07,255,high_activation,incongruent,correct,555
sub-07,256,high_activation,incongruent,correct,545
sub-07,257,high_activation,congruent,correct,733
sub-07,258,high_activation,incongruent,correct,669
sub-07,259,high_activation,incongruent,correct,583
sub-07,260,high_activation,congruent,correct,720
sub-07,261,high_activation,incongruent,correct,639
sub-07,262,high_activation,incongruent,correct,467
sub-07,263,high_activation,incongruent,correct,619
sub-07,264,high_activation,congruent,correct,461
sub-07,265,high_activation,congruent,correct,841
sub-07,266,high_activation,incongruent,correct,681
sub-07,267,high_activation,incongruent,correct,663
sub-07,268,high_activation,incongruent,correct,495
sub-07,269,high_activation,congruent,correct,901
sub-07,270,high_activation,incongruent,correct,553
sub-07,271,high_activation,incongruent,correct,515
sub-07,272,high_activation,incongruent,correct,511
sub-07,273,high_activation,incongruent,correct,536
sub-07,274,high_activation,congruent,correct,581
sub-07,275,high_activation,incongruent,correct,637
sub-07,276,high_activation,congruent,correct,811
sub-07,277,high_activation,incongruent,correct,709
sub-07,278,high_activation,congruent,correct,416
sub-07,279,high_activation,congruent,correct,427
sub-07,280,high_activation,incongruent,correct,851
sub-07,281,high_activation,incongruent,correct,553
sub-07,282,high_activation,congruent,correct,566
sub-07,283,high_activation,congruent,correct,572
sub-07,284,high_activation,congruent,correct,445
sub-07,285,high_activation,congruent,correct,713
sub-07,286,high_activation,incongruent,correct,703
sub-07,287,high_activation,congruent,correct,581
sub-07,288,high_activation,congruent,correct,713
sub-07,289,high_activation,congruent,correct,575
sub-07,290,high_activation,incongruent,correct,574
sub-07,291,high_activation,congruent,correct,432
sub-07,292,high_activation,congruent,correct,507
sub-07,293,high_activation,congruent,correct,509
sub-07,294,high_activation,incongruent,correct,577
sub-07,295,high_activation,incongruent,correct,469
sub-07,296,high_activation,congruent,correct,431
sub-07,297,high_activation,congruent,correct,391
sub-07,298,high_activation,congruent,correct,533
sub-07,299,high_activation,incongruent,correct,819
sub-07,300,high_activation,congruent,correct,359
sub-07,301,high_activation,incongruent,correct,505
sub-07,302,high_activation,congruent,correct,791
sub-07,303,high_activation,congruent,correct,349
sub-07,304,high_activation,congruent,correct,481
sub-07,305,high_activation,incongruent,incorrect,530
sub-07,306,high_activation,incongruent,correct,531
sub-07,307,high_activation,incongruent,correct,729
sub-07,308,high_activation,congruent,correct,432
sub-07,309,high_activation,incongruent,correct,719
sub-07,310,high_activation,congruent,correct,575
sub-07,311,high_activation,incongruent,correct,695
sub-07,312,high_activation,incongruent,correct,729
sub-07,313,high_activation,incongruent,correct,681
sub-07,314,high_activation,congruent,correct,635
sub-07,315,high_activation,congruent,correct,432
sub-07,316,high_activation,incongruent,correct,653
sub-07,317,high_activation,incongruent,correct,721
sub-07,318,high_activation,congruent,correct,621
sub-07,319,high_activation,congruent,correct,577
sub-07,320,high_activation,incongruent,correct,637
sub-07,321,high_activation,incongruent,correct,513
sub-07,322,high_activation,congruent,correct,691
sub-07,323,high_activation,incongruent,correct,671
sub-07,324,high_activation,congruent,correct,845
sub-07,325,high_activation,congruent,correct,516
sub-07,326,high_activation,incongruent,correct,727
sub-07,327,high_activation,congruent,correct,827
sub-07,328,high_activation,incongruent,correct,759
sub-07,329,high_activation,congruent,correct,588
sub-07,330,high_activation,incongruent,correct,641
sub-07,331,high_activation,incongruent,correct,636
sub-07,332,high_activation,incongruent,correct,627
sub-07,333,high_activation,congruent,correct,571
sub-07,334,high_activation,congruent,correct,609
sub-07,335,high_activation,congruent,correct,598
sub-07,336,high_activation,incongruent,correct,503
sub-07,337,high_activation,incongruent,correct,463
sub-07,338,high_activation,incongruent,correct,495
sub-07,339,high_activation,incongruent,correct,495
sub-07,340,high_activation,incongruent,correct,439
sub-07,341,high_activation,congruent,correct,807
sub-07,342,high_activation,congruent,correct,747
sub-07,343,high_activation,congruent,correct,677
sub-07,344,high_activation,congruent,correct,591
sub-07,345,high_activation,congruent,correct,491
sub-07,346,high_activation,congruent,correct,491
sub-07,347,high_activation,incongruent,correct,647
sub-07,348,high_activation,incongruent,correct,551
sub-07,349,high_activation,congruent,correct,603
sub-07,350,high_activation,congruent,correct,449
sub-07,351,high_activation,incongruent,correct,499
sub-07,352,high_activation,incongruent,correct,759
sub-07,353,high_activation,congruent,correct,555
sub-07,354,high_activation,incongruent,correct,592
sub-07,355,high_activation,congruent,correct,537
sub-07,356,high_activation,congruent,correct,577
sub-07,357,high_activation,congruent,correct,623
sub-07,358,high_activation,incongruent,correct,503
sub-07,359,high_activation,incongruent,correct,631
sub-07,360,high_activation,incongruent,correct,579
sub-07,361,high_activation,congruent,correct,559
sub-07,362,high_activation,incongruent,correct,707
sub-07,363,high_activation,incongruent,correct,587
sub-07,364,high_activation,incongruent,correct,605
sub-07,365,high_activation,congruent,correct,554
sub-07,366,high_activation,incongruent,correct,585
sub-07,367,high_activation,incongruent,correct,639
sub-07,368,high_activation,incongruent,correct,499
sub-07,369,high_activation,congruent,correct,507
sub-07,370,high_activation,congruent,correct,463
sub-07,371,high_activation,congruent,correct,691
sub-07,372,high_activation,incongruent,correct,653
sub-07,373,high_activation,congruent,correct,589
sub-07,374,high_activation,congruent,incorrect,507
sub-07,375,high_activation,congruent,correct,327
sub-07,376,high_activation,congruent,correct,519
sub-07,377,high_activation,congruent,correct,704
sub-07,378,high_activation,congruent,correct,601
sub-07,379,high_activation,incongruent,correct,901
sub-07,380,high_activation,incongruent,correct,441
sub-07,381,high_activation,incongruent,correct,787
sub-07,382,high_activation,incongruent,correct,624
sub-07,383,high_activation,incongruent,correct,771
sub-07,384,high_activation,incongruent,correct,445
sub-07,385,high_activation,incongruent,correct,597
sub-07,386,high_activation,congruent,correct,877
sub-07,387,high_activation,incongruent,correct,569
sub-07,388,high_activation,incongruent,correct,911
sub-07,389,high_activation,incongruent,correct,492
sub-07,390,high_activation,incongruent,correct,717
sub-07,391,high_activation,congruent,correct,627
sub-07,392,high_activation,congruent,correct,523
sub-07,393,high_activation,congruent,correct,571
sub-07,394,high_activation,incongruent,correct,621
sub-07,395,high_activation,congruent,correct,617
sub-07,396,high_activation,congruent,correct,475
sub-07,397,high_activation,incongruent,correct,701
sub-07,398,high_activation,incongruent,correct,612
sub-07,399,high_activation,congruent,correct,1039
sub-07,400,high_activation,congruent,correct,525
sub-07,401,high_activation,incongruent,correct,565
sub-07,402,high_activation,congruent,correct,629
sub-07,403,high_activation,incongruent,correct,799
sub-07,404,high_activation,congruent,correct,661
sub-07,405,high_activation,incongruent,correct,605
sub-07,406,high_activation,incongruent,correct,607
sub-07,407,high_activation,incongruent,correct,541
sub-07,408,high_activation,incongruent,correct,661
sub-07,409,high_activation,incongruent,correct,757
sub-07,410,high_activation,incongruent,correct,571
sub-07,411,high_activation,congruent,correct,543
sub-07,412,high_activation,congruent,correct,863
sub-07,413,high_activation,incongruent,correct,597
sub-07,414,high_activation,incongruent,,
sub-07,415,high_activation,congruent,correct,699
sub-07,416,high_activation,incongruent,correct,675
sub-07,417,high_activation,congruent,correct,801
sub-07,418,high_activation,incongruent,correct,541
sub-07,419,high_activation,congruent,correct,578
sub-07,420,high_activation,congruent,correct,635
sub-07,421,high_activation,incongruent,correct,557
sub-07,422,high_activation,congruent,correct,515
sub-07,423,high_activation,congruent,correct,505
sub-07,424,high_activation,congruent,correct,591
sub-07,425,high_activation,congruent,correct,545
sub-07,426,high_activation,incongruent,correct,699
sub-07,427,high_activation,congruent,correct,411
sub-07,428,high_activation,incongruent,correct,637
sub-07,429,high_activation,incongruent,correct,553
sub-07,430,high_activation,incongruent,correct,638
sub-07,431,high_activation,congruent,correct,835
sub-07,432,high_activation,incongruent,correct,703
sub-07,433,high_activation,incongruent,correct,449
sub-07,434,high_activation,incongruent,correct,835
sub-07,435,high_activation,congruent,correct,527
sub-07,436,high_activation,congruent,correct,629
sub-07,437,high_activation,congruent,correct,524
sub-07,438,high_activation,incongruent,correct,537
sub-07,439,high_activation,congruent,correct,611
sub-07,440,high_activation,congruent,correct,524
sub-07,441,high_activation,incongruent,correct,557
sub-07,442,high_activation,congruent,correct,365
sub-07,443,high_activation,congruent,correct,521
sub-07,444,high_activation,incongruent,incorrect,513
sub-07,445,high_activation,congruent,correct,429
sub-07,446,high_activation,congruent,correct,815
sub-07,447,high_activation,incongruent,correct,487
sub-07,448,high_activation,congruent,correct,767
sub-07,449,high_activation,congruent,correct,599
sub-07,450,high_activation,congruent,correct,595
sub-07,451,high_activation,congruent,correct,429
sub-07,452,high_activation,incongruent,correct,659
sub-07,453,high_activation,incongruent,correct,481
sub-07,454,high_activation,incongruent,correct,661
sub-07,455,high_activation,incongruent,correct,507
sub-07,456,high_activation,incongruent,correct,547
sub-07,457,high_activation,congruent,correct,475
sub-07,458,high_activation,incongruent,correct,605
sub-07,459,high_activation,congruent,correct,519
sub-07,460,high_activation,incongruent,correct,707
sub-07,461,high_activation,incongruent,correct,562
sub-07,462,high_activation,incongruent,correct,595
sub-07,463,high_activation,incongruent,correct,528
sub-07,464,high_activation,incongruent,correct,541
sub-07,465,high_activation,incongruent,correct,576
sub-07,466,high_activation,incongruent,correct,533
sub-07,467,high_activation,incongruent,correct,377
sub-07,468,high_activation,incongruent,correct,633
sub-07,469,high_activation,incongruent,correct,509
sub-07,470,high_activation,congruent,correct,555
sub-07,471,high_activation,congruent,correct,624
sub-07,472,high_activation,incongruent,incorrect,791
sub-07,473,high_activation,congruent,correct,660
sub-07,474,high_activation,congruent,correct,704
sub-07,475,high_activation,congruent,correct,503
sub-07,476,high_activation,congruent,correct,527
sub-07,477,high_activation,incongruent,correct,631
sub-07,478,high_activation,incongruent,correct,625
sub-07,479,high_activation,congruent,correct,451
sub-07,480,high_activation,congruent,correct,515
sub-07,481,high_activation,congruent,correct,571
sub-07,482,high_activation,congruent,correct,563
sub-07,483,high_activation,congruent,correct,586
sub-07,484,high_activation,congruent,correct,613
sub-07,485,high_activation,incongruent,correct,625
sub-07,486,high_activation,congruent,correct,631
sub-07,487,high_activation,incongruent,correct,757
sub-07,488,high_activation,congruent,correct,567
sub-07,489,high_activation,incongruent,correct,584
sub-07,490,high_activation,congruent,correct,579
sub-07,491,high_activation,congruent,correct,583
sub-07,492,high_activation,incongruent,correct,857
sub-07,493,high_activation,congruent,correct,504
sub-07,494,high_activation,congruent,correct,315
sub-07,495,high_activation,congruent,correct,471
sub-07,496,high_activation,incongruent,correct,483
sub-07,497,high_activation,congruent,correct,707
sub-07,498,high_activation,congruent,correct,627
sub-07,499,high_activation,incongruent,correct,725
sub-07,500,high_activation,congruent,correct,599
sub-07,501,high_activation,incongruent,correct,485
sub-07,502,high_activation,incongruent,correct,681
sub-07,503,high_activation,incongruent,correct,842
sub-07,504,high_activation,congruent,correct,977
sub-07,505,high_activation,incongruent,correct,769
sub-07,506,high_activation,congruent,correct,724
sub-07,507,high_activation,congruent,correct,596
sub-07,508,high_activation,congruent,correct,600
sub-07,509,high_activation,congruent,correct,464
sub-07,510,high_activation,incongruent,correct,735
sub-07,511,high_activation,congruent,correct,571
sub-07,512,high_activation,congruent,correct,489
sub-07,513,high_activation,congruent,correct,409
sub-07,514,high_activation,incongruent,correct,621
sub-07,515,high_activation,incongruent,correct,596
sub-07,516,high_activation,incongruent,correct,797
sub-07,517,high_activation,incongruent,correct,680
sub-07,518,high_activation,congruent,correct,581
sub-07,519,high_activation,congruent,correct,461
sub-07,520,high_activation,congruent,correct,557
sub-07,521,high_activation,congruent,correct,735
sub-07,522,high_activation,congruent,correct,651
sub-07,523,high_activation,congruent,correct,467
sub-07,524,high_activation,congruent,correct,620
sub-07,525,high_activation,incongruent,incorrect,1137
sub-07,526,high_activation,congruent,correct,443
sub-07,527,high_activation,incongruent,correct,547
sub-07,528,high_activation,congruent,correct,477
sub-07,529,high_activation,congruent,correct,487
sub-07,530,high_activation,congruent,correct,607
sub-07,531,high_activation,incongruent,correct,644
sub-07,532,high_activation,congruent,correct,617
sub-07,533,high_activation,congruent,correct,623
sub-07,534,high_activation,incongruent,correct,999
sub-07,535,high_activation,incongruent,correct,507
sub-07,536,high_activation,incongruent,correct,809
sub-07,537,high_activation,congruent,correct,547
sub-07,538,high_activation,congruent,correct,563
sub-07,539,high_activation,incongruent,correct,700
sub-07,540,high_activation,incongruent,correct,760
sub-07,541,high_activation,congruent,correct,691
sub-07,542,high_activation,congruent,correct,603
sub-07,543,high_activation,congruent,correct,521
sub-07,544,high_activation,incongruent,correct,581
sub-07,545,high_activation,congruent,correct,501
sub-07,546,high_activation,congruent,correct,557
sub-07,547,high_activation,incongruent,correct,537
sub-07,548,high_activation,congruent,correct,465
sub-07,549,high_activation,congruent,correct,549
sub-07,550,high_activation,congruent,correct,671
sub-07,551,high_activation,incongruent,correct,667
sub-07,552,high_activation,congruent,correct,673
sub-07,553,high_activation,incongruent,correct,667
sub-07,554,high_activation,congruent,correct,577
sub-07,555,high_activation,congruent,correct,389
sub-07,556,high_activation,incongruent,correct,509
sub-07,557,high_activation,incongruent,correct,635
sub-07,558,high_activation,incongruent,incorrect,587
sub-07,559,high_activation,incongruent,correct,551
sub-07,560,high_activation,incongruent,correct,435
sub-07,561,high_activation,incongruent,correct,655
sub-07,562,high_activation,incongruent,correct,531
sub-07,563,high_activation,incongruent,correct,893
sub-07,564,high_activation,congruent,correct,615
sub-07,565,high_activation,incongruent,correct,553
sub-07,566,high_activation,incongruent,correct,617
sub-07,567,high_activation,congruent,correct,503
sub-07,568,high_activation,incongruent,correct,743
sub-07,569,high_activation,incongruent,correct,735
sub-07,570,high_activation,congruent,correct,583
sub-07,571,high_activation,congruent,correct,615
sub-07,572,high_activation,incongruent,correct,1010
sub-07,573,high_activation,incongruent,correct,605
sub-07,574,high_activation,incongruent,correct,651
sub-07,575,high_activation,incongruent,correct,485
sub-07,576,high_activation,congruent,correct,521
sub-07,577,high_activation,incongruent,correct,883
sub-07,578,high_activation,incongruent,correct,607
sub-07,579,high_activation,congruent,correct,717
sub-07,580,high_activation,congruent,correct,526
sub-07,581,high_activation,congruent,correct,509
sub-07,582,high_activation,incongruent,correct,673
sub-07,583,high_activation,congruent,correct,524
sub-07,584,high_activation,incongruent,correct,659
sub-07,585,high_activation,incongruent,correct,759
sub-07,586,high_activation,congruent,correct,689
sub-07,587,high_activation,incongruent,correct,691
sub-07,588,high_activation,congruent,correct,545
sub-07,589,high_activation,congruent,correct,667
sub-07,590,high_activation,congruent,correct,876
sub-07,591,high_activation,incongruent,correct,583
sub-07,592,high_activation,incongruent,incorrect,29
sub-07,593,high_activation,congruent,correct,842
sub-07,594,high_activation,incongruent,correct,485
sub-07,595,high_activation,incongruent,correct,682
sub-07,596,high_activation,incongruent,correct,631
sub-07,597,high_activation,incongruent,correct,475
sub-07,598,high_activation,incongruent,correct,640
sub-07,599,high_activation,incongruent,correct,549
sub-07,600,high_activation,congruent,correct,658
sub-07,601,high_activation,congruent,correct,467
sub-07,602,high_activation,incongruent,correct,677
sub-07,603,high_activation,congruent,correct,913
sub-07,604,high_activation,incongruent,correct,803
sub-07,605,high_activation,incongruent,correct,887
sub-07,606,high_activation,incongruent,correct,643
sub-07,607,high_activation,congruent,correct,560
sub-07,608,high_activation,congruent,correct,879
sub-07,609,high_activation,congruent,correct,477
sub-07,610,high_activation,incongruent,correct,827
sub-07,611,high_activation,incongruent,correct,645
sub-07,612,high_activation,incongruent,correct,843
sub-07,613,high_activation,congruent,correct,671
sub-07,614,high_activation,congruent,correct,571
sub-07,615,high_activation,congruent,correct,323
sub-07,616,high_activation,incongruent,correct,553
sub-07,617,high_activation,incongruent,correct,817
sub-07,618,high_activation,incongruent,correct,480
sub-07,619,high_activation,incongruent,correct,719
sub-07,620,high_activation,congruent,correct,771
sub-07,621,high_activation,congruent,correct,583
sub-07,622,high_activation,incongruent,correct,1078
sub-07,623,high_activation,incongruent,correct,399
sub-07,624,high_activation,incongruent,correct,765
sub-07,625,high_activation,incongruent,correct,891
sub-07,626,high_activation,incongruent,correct,579
sub-07,627,high_activation,congruent,correct,621
sub-07,628,high_activation,congruent,correct,477
sub-07,629,high_activation,congruent,correct,521
sub-07,630,high_activation,incongruent,correct,475
sub-07,631,high_activation,incongruent,correct,1369
sub-07,632,high_activation,congruent,correct,533
sub-07,633,high_activation,incongruent,correct,431
sub-07,634,high_activation,incongruent,correct,762
sub-07,635,high_activation,incongruent,correct,551
sub-07,636,high_activation,congruent,correct,761
sub-07,637,high_activation,congruent,correct,363
sub-07,638,high_activation,congruent,correct,603
sub-07,639,high_activation,congruent,correct,729
sub-07,640,high_activation,congruent,correct,420
sub-07,641,high_activation,congruent,correct,727
sub-07,642,high_activation,incongruent,correct,515
sub-07,643,high_activation,congruent,correct,807
sub-07,644,high_activation,congruent,correct,669
sub-07,645,high_activation,congruent,correct,579
sub-07,646,high_activation,congruent,correct,517
sub-07,647,high_activation,incongruent,correct,665
sub-07,648,high_activation,congruent,correct,587
sub-07,649,high_activation,congruent,correct,629
sub-07,650,high_activation,incongruent,correct,481
sub-07,651,high_activation,incongruent,correct,523
sub-07,652,high_activation,incongruent,correct,505
sub-07,653,high_activation,incongruent,correct,687
sub-07,654,high_activation,incongruent,correct,485
sub-07,655,high_activation,incongruent,correct,503
sub-07,656,high_activation,congruent,correct,539
sub-07,657,high_activation,incongruent,correct,513
sub-07,658,high_activation,incongruent,correct,531
sub-07,659,high_activation,congruent,correct,556
sub-07,660,high_activation,incongruent,correct,721
sub-07,661,high_activation,congruent,correct,415
sub-07,662,high_activation,congruent,correct,521
sub-07,663,high_activation,incongruent,correct,880
sub-07,664,high_activation,congruent,correct,531
sub-07,665,high_activation,congruent,correct,385
sub-07,666,high_activation,congruent,correct,532
sub-07,667,high_activation,incongruent,correct,515
sub-07,668,high_activation,congruent,correct,751
sub-07,669,high_activation,congruent,correct,600
sub-07,670,high_activation,incongruent,correct,509
sub-07,671,high_activation,incongruent,correct,693
sub-07,672,high_activation,congruent,correct,741
sub-07,673,high_activation,congruent,correct,627
sub-07,674,high_activation,incongruent,correct,555
sub-07,675,high_activation,congruent,correct,555
sub-07,676,high_activation,incongruent,correct,465
sub-07,677,high_activation,congruent,correct,599
sub-07,678,high_activation,congruent,correct,483
sub-07,679,high_activation,congruent,correct,515
sub-07,680,high_activation,incongruent,correct,579
sub-07,681,high_activation,congruent,correct,641
sub-07,682,high_activation,incongruent,correct,559
sub-07,683,high_activation,congruent,correct,361
sub-07,684,high_activation,incongruent,correct,593
sub-07,685,high_activation,incongruent,correct,649
sub-07,686,high_activation,congruent,correct,581
sub-07,687,high_activation,congruent,correct,573
sub-07,688,high_activation,incongruent,correct,541
sub-07,689,high_activation,incongruent,correct,549
sub-07,690,high_activation,incongruent,correct,431
sub-07,691,high_activation,congruent,correct,567
sub-07,692,high_activation,congruent,correct,506
sub-07,693,high_activation,incongruent,correct,511
sub-07,694,high_activation,congruent,correct,615
sub-07,695,high_activation,incongruent,correct,676
sub-07,696,high_activation,incongruent,correct,977
sub-07,697,high_activation,congruent,correct,534
sub-07,698,high_activation,incongruent,correct,575
sub-07,699,high_activation,incongruent,correct,847
sub-07,700,high_activation,congruent,correct,590
sub-07,701,high_activation,congruent,correct,507
sub-07,702,high_activation,congruent,correct,470
sub-07,703,high_activation,incongruent,correct,585
sub-07,704,high_activation,incongruent,correct,549
sub-07,705,high_activation,congruent,correct,427
sub-07,706,high_activation,congruent,correct,519
sub-07,707,high_activation,congruent,correct,469
sub-07,708,high_activation,congruent,correct,573
sub-07,709,high_activation,congruent,correct,649
sub-07,710,high_activation,congruent,correct,483
sub-07,711,high_activation,incongruent,correct,459
sub-07,712,high_activation,congruent,correct,489
sub-07,713,high_activation,incongruent,correct,614
sub-07,714,high_activation,congruent,correct,687
sub-07,715,high_activation,congruent,correct,619
sub-07,716,high_activation,incongruent,correct,711
sub-07,717,high_activation,incongruent,correct,544
sub-07,718,high_activation,congruent,incorrect,788
sub-07,719,high_activation,incongruent,correct,533
sub-07,720,high_activation,incongruent,correct,711
sub-07,721,high_activation,incongruent,correct,593
sub-07,722,high_activation,incongruent,correct,707
sub-07,723,high_activation,congruent,correct,425
sub-07,724,high_activation,incongruent,correct,700
sub-07,725,high_activation,incongruent,correct,469
sub-07,726,high_activation,congruent,correct,935
sub-07,727,high_activation,incongruent,correct,829
sub-07,728,high_activation,congruent,correct,555
sub-07,729,high_activation,congruent,correct,511
sub-07,730,high_activation,congruent,correct,579
sub-07,731,high_activation,congruent,correct,543
sub-07,732,high_activation,incongruent,correct,643
sub-07,733,high_activation,congruent,correct,597
sub-07,734,high_activation,congruent,correct,459
sub-07,735,high_activation,congruent,correct,463
sub-07,736,high_activation,incongruent,correct,531
sub-07,737,high_activation,congruent,correct,503
sub-07,738,high_activation,incongruent,incorrect,531
sub-07,739,high_activation,incongruent,correct,775
sub-07,740,high_activation,incongruent,correct,943
sub-07,741,high_activation,incongruent,correct,522
sub-07,742,high_activation,congruent,correct,769
sub-07,743,high_activation,congruent,correct,639
sub-07,744,high_activation,incongruent,correct,957
sub-07,745,high_activation,incongruent,correct,487
sub-07,746,high_activation,congruent,correct,571
sub-07,747,high_activation,congruent,correct,471
sub-07,748,high_activation,congruent,correct,555
sub-07,749,high_activation,incongruent,correct,383
sub-07,750,high_activation,incongruent,correct,533
sub-07,751,high_activation,congruent,correct,547
sub-07,752,high_activation,incongruent,incorrect,561
sub-07,753,high_activation,congruent,correct,561
sub-07,754,high_activation,congruent,correct,529
sub-07,755,high_activation,congruent,correct,627
sub-07,756,high_activation,congruent,correct,533
sub-07,757,high_activation,incongruent,correct,609
sub-07,1,low_activation,congruent,correct,1063
sub-07,2,low_activation,incongruent,correct,707
sub-07,3,low_activation,incongruent,correct,533
sub-07,4,low_activation,incongruent,correct,681
sub-07,5,low_activation,congruent,correct,759
sub-07,6,low_activation,incongruent,correct,665
sub-07,7,low_activation,congruent,correct,607
sub-07,8,low_activation,congruent,correct,483
sub-07,9,low_activation,congruent,correct,697
sub-07,10,low_activation,congruent,correct,667
sub-07,11,low_activation,congruent,correct,493
sub-07,12,low_activation,incongruent,correct,445
sub-07,13,low_activation,incongruent,correct,651
sub-07,14,low_activation,congruent,correct,803
sub-07,15,low_activation,congruent,correct,619
sub-07,16,low_activation,incongruent,correct,875
sub-07,17,low_activation,congruent,correct,519
sub-07,18,low_activation,incongruent,correct,641
sub-07,19,low_activation,incongruent,correct,585
sub-07,20,low_activation,congruent,correct,641
sub-07,21,low_activation,congruent,correct,647
sub-07,22,low_activation,incongruent,correct,746
sub-07,23,low_activation,congruent,correct,489
sub-07,24,low_activation,incongruent,correct,491
sub-07,25,low_activation,incongruent,correct,463
sub-07,26,low_activation,incongruent,correct,333
sub-07,27,low_activation,congruent,correct,427
sub-07,28,low_activation,congruent,correct,417
sub-07,29,low_activation,incongruent,correct,591
sub-07,30,low_activation,congruent,correct,365
sub-07,31,low_activation,incongruent,correct,621
sub-07,32,low_activation,incongruent,correct,653
sub-07,33,low_activation,incongruent,correct,789
sub-07,34,low_activation,congruent,correct,527
sub-07,35,low_activation,congruent,correct,671
sub-07,36,low_activation,incongruent,correct,737
sub-07,37,low_activation,incongruent,correct,717
sub-07,38,low_activation,incongruent,correct,595
sub-07,39,low_activation,incongruent,correct,597
sub-07,40,low_activation,incongruent,correct,611
sub-07,41,low_activation,incongruent,correct,651
sub-07,42,low_activation,congruent,correct,651
sub-07,43,low_activation,incongruent,correct,519
sub-07,44,low_activation,incongruent,correct,755
sub-07,45,low_activation,congruent,correct,681
sub-07,46,low_activation,congruent,correct,595
sub-07,47,low_activation,incongruent,correct,727
sub-07,48,low_activation,incongruent,correct,525
sub-07,49,low_activation,congruent,correct,635
sub-07,50,low_activation,incongruent,correct,629
sub-07,51,low_activation,congruent,correct,801
sub-07,52,low_activation,congruent,correct,457
sub-07,53,low_activation,incongruent,correct,611
sub-07,54,low_activation,congruent,correct,529
sub-07,55,low_activation,incongruent,correct,797
sub-07,56,low_activation,congruent,correct,723
sub-07,57,low_activation,congruent,correct,575
sub-07,58,low_activation,congruent,correct,479
sub-07,59,low_activation,congruent,correct,561
sub-07,60,low_activation,incongruent,correct,663
sub-07,61,low_activation,congruent,correct,477
sub-07,62,low_activation,incongruent,correct,725
sub-07,63,low_activation,congruent,correct,633
sub-07,64,low_activation,congruent,correct,403
sub-07,65,low_activation,incongruent,correct,509
sub-07,66,low_activation,congruent,correct,589
sub-07,67,low_activation,incongruent,correct,689
sub-07,68,low_activation,incongruent,correct,1045
sub-07,69,low_activation,congruent,correct,787
sub-07,70,low_activation,congruent,correct,605
sub-07,71,low_activation,congruent,correct,523
sub-07,72,low_activation,incongruent,correct,617
sub-07,73,low_activation,incongruent,correct,383
sub-07,74,low_activation,incongruent,correct,463
sub-07,75,low_activation,incongruent,correct,585
sub-07,76,low_activation,congruent,correct,521
sub-07,77,low_activation,congruent,correct,541
sub-07,78,low_activation,incongruent,correct,787
sub-07,79,low_activation,incongruent,correct,699
sub-07,80,low_activation,congruent,correct,639
sub-07,81,low_activation,incongruent,correct,509
sub-07,82,low_activation,congruent,correct,586
sub-07,83,low_activation,incongruent,correct,721
sub-07,84,low_activation,incongruent,correct,511
sub-07,85,low_activation,incongruent,correct,417
sub-07,86,low_activation,incongruent,correct,347
sub-07,87,low_activation,congruent,correct,415
sub-07,88,low_activation,congruent,correct,521
sub-07,89,low_activation,congruent,correct,844
sub-07,90,low_activation,congruent,correct,411
sub-07,91,low_activation,incongruent,incorrect,665
sub-07,92,low_activation,incongruent,correct,459
sub-07,93,low_activation,incongruent,correct,817
sub-07,94,low_activation,incongruent,correct,637
sub-07,95,low_activation,congruent,correct,553
sub-07,96,low_activation,congruent,correct,687
sub-07,97,low_activation,congruent,correct,995
sub-07,98,low_activation,incongruent,correct,495
sub-07,99,low_activation,incongruent,correct,981
sub-07,100,low_activation,incongruent,correct,637
sub-07,101,low_activation,incongruent,correct,1221
sub-07,102,low_activation,incongruent,correct,607
sub-07,103,low_activation,incongruent,correct,626
sub-07,104,low_activation,congruent,correct,453
sub-07,105,low_activation,incongruent,correct,603
sub-07,106,low_activation,incongruent,correct,541
sub-07,107,low_activation,congruent,correct,1053
sub-07,108,low_activation,congruent,correct,554
sub-07,109,low_activation,incongruent,correct,475
sub-07,110,low_activation,congruent,correct,667
sub-07,111,low_activation,incongruent,correct,545
sub-07,112,low_activation,congruent,correct,867
sub-07,113,low_activation,incongruent,correct,727
sub-07,114,low_activation,congruent,correct,535
sub-07,115,low_activation,congruent,correct,799
sub-07,116,low_activation,congruent,correct,557
sub-07,117,low_activation,incongruent,correct,591
sub-07,118,low_activation,incongruent,correct,559
sub-07,119,low_activation,incongruent,correct,867
sub-07,120,low_activation,congruent,correct,461
sub-07,121,low_activation,incongruent,correct,635
sub-07,122,low_activation,congruent,correct,775
sub-07,123,low_activation,incongruent,correct,658
sub-07,124,low_activation,incongruent,correct,451
sub-07,125,low_activation,incongruent,correct,501
sub-07,126,low_activation,congruent,correct,619
sub-07,127,low_activation,incongruent,correct,661
sub-07,128,low_activation,congruent,correct,480
sub-07,129,low_activation,incongruent,correct,791
sub-07,130,low_activation,congruent,correct,553
sub-07,131,low_activation,incongruent,correct,539
sub-07,132,low_activation,incongruent,correct,581
sub-07,133,low_activation,incongruent,correct,826
sub-07,134,low_activation,congruent,correct,651
sub-07,135,low_activation,incongruent,correct,519
sub-07,136,low_activation,incongruent,correct,627
sub-07,137,low_activation,congruent,correct,573
sub-07,138,low_activation,congruent,correct,494
sub-07,139,low_activation,congruent,correct,483
sub-07,140,low_activation,congruent,correct,569
sub-07,141,low_activation,congruent,correct,660
sub-07,142,low_activation,incongruent,correct,881
sub-07,143,low_activation,congruent,correct,657
sub-07,144,low_activation,incongruent,correct,563
sub-07,145,low_activation,congruent,correct,585
sub-07,146,low_activation,congruent,correct,451
sub-07,147,low_activation,congruent,correct,443
sub-07,148,low_activation,congruent,correct,581
sub-07,149,low_activation,congruent,correct,461
sub-07,150,low_activation,incongruent,correct,661
sub-07,151,low_activation,incongruent,correct,579
sub-07,152,low_activation,congruent,correct,573
sub-07,153,low_activation,incongruent,correct,645
sub-07,154,low_activation,congruent,correct,507
sub-07,155,low_activation,congruent,correct,545
sub-07,156,low_activation,congruent,correct,663
sub-07,157,low_activation,incongruent,correct,719
sub-07,158,low_activation,incongruent,correct,481
sub-07,159,low_activation,incongruent,correct,515
sub-07,160,low_activation,incongruent,correct,477
sub-07,161,low_activation,incongruent,correct,517
sub-07,162,low_activation,congruent,correct,684
sub-07,163,low_activation,incongruent,correct,667
sub-07,164,low_activation,incongruent,correct,694
sub-07,165,low_activation,incongruent,correct,589
sub-07,166,low_activation,congruent,correct,563
sub-07,167,low_activation,incongruent,correct,439
sub-07,168,low_activation,incongruent,correct,385
sub-07,169,low_activation,incongruent,correct,369
sub-07,170,low_activation,congruent,correct,613
sub-07,171,low_activation,congruent,correct,439
sub-07,172,low_activation,congruent,correct,570
sub-07,173,low_activation,congruent,correct,631
sub-07,174,low_activation,congruent,correct,485
sub-07,175,low_activation,congruent,correct,431
sub-07,176,low_activation,incongruent,correct,617
sub-07,177,low_activation,congruent,correct,839
sub-07,178,low_activation,congruent,correct,289
sub-07,179,low_activation,congruent,correct,309
sub-07,180,low_activation,congruent,correct,349
sub-07,181,low_activation,congruent,correct,399
sub-07,182,low_activation,incongruent,incorrect,387
sub-07,183,low_activation,incongruent,correct,745
sub-07,184,low_activation,incongruent,correct,886
sub-07,185,low_activation,incongruent,correct,603
sub-07,186,low_activation,congruent,correct,713
sub-07,187,low_activation,incongruent,correct,1123
sub-07,188,low_activation,congruent,correct,685
sub-07,189,low_activation,incongruent,correct,491
sub-07,190,low_activation,incongruent,correct,607
sub-07,191,low_activation,congruent,correct,521
sub-07,192,low_activation,incongruent,correct,727
sub-07,193,low_activation,incongruent,correct,489
sub-07,194,low_activation,congruent,correct,917
sub-07,195,low_activation,congruent,correct,579
sub-07,196,low_activation,incongruent,correct,637
sub-07,197,low_activation,congruent,correct,547
sub-07,198,low_activation,congruent,correct,541
sub-07,199,low_activation,congruent,correct,439
sub-07,200,low_activation,congruent,correct,483
sub-07,201,low_activation,incongruent,correct,914
sub-07,202,low_activation,congruent,correct,709
sub-07,203,low_activation,incongruent,correct,619
sub-07,204,low_activation,congruent,correct,599
sub-07,205,low_activation,incongruent,correct,529
sub-07,206,low_activation,congruent,correct,761
sub-07,207,low_activation,congruent,correct,509
sub-07,208,low_activation,congruent,correct,543
sub-07,209,low_activation,incongruent,correct,524
sub-07,210,low_activation,incongruent,correct,449
sub-07,211,low_activation,incongruent,correct,491
sub-07,212,low_activation,congruent,correct,975
sub-07,213,low_activation,congruent,correct,630
sub-07,214,low_activation,congruent,correct,559
sub-07,215,low_activation,congruent,correct,599
sub-07,216,low_activation,congruent,correct,545
sub-07,217,low_activation,incongruent,correct,714
sub-07,218,low_activation,incongruent,correct,453
sub-07,219,low_activation,incongruent,correct,587
sub-07,220,low_activation,congruent,correct,535
sub-07,221,low_activation,incongruent,correct,707
sub-07,222,low_activation,incongruent,correct,329
sub-07,223,low_activation,incongruent,correct,562
sub-07,224,low_activation,incongruent,correct,516
sub-07,225,low_activation,incongruent,correct,513
sub-07,226,low_activation,incongruent,correct,683
sub-07,227,low_activation,congruent,correct,632
sub-07,228,low_activation,incongruent,correct,553
sub-07,229,low_activation,congruent,correct,589
sub-07,230,low_activation,congruent,correct,479
sub-07,231,low_activation,congruent,correct,685
sub-07,232,low_activation,congruent,correct,671
sub-07,233,low_activation,congruent,correct,363
sub-07,234,low_activation,congruent,correct,485
sub-07,235,low_activation,incongruent,correct,727
sub-07,236,low_activation,congruent,correct,593
sub-07,237,low_activation,congruent,incorrect,725
sub-07,238,low_activation,congruent,correct,421
sub-07,239,low_activation,congruent,correct,545
sub-07,240,low_activation,congruent,correct,463
sub-07,241,low_activation,congruent,correct,1131
sub-07,242,low_activation,congruent,correct,477
sub-07,243,low_activation,congruent,correct,471
sub-07,244,low_activation,congruent,correct,931
sub-07,245,low_activation,incongruent,correct,563
sub-07,246,low_activation,incongruent,correct,467
sub-07,247,low_activation,congruent,correct,497
sub-07,248,low_activation,incongruent,correct,477
sub-07,249,low_activation,congruent,correct,455
sub-07,250,low_activation,congruent,correct,347
sub-07,251,low_activation,incongruent,correct,458
sub-07,252,low_activation,incongruent,correct,953
sub-07,253,low_activation,incongruent,correct,582
sub-07,254,low_activation,congruent,correct,558
sub-07,255,low_activation,incongruent,correct,885
sub-07,256,low_activation,incongruent,correct,463
sub-07,257,low_activation,incongruent,correct,511
sub-07,258,low_activation,congruent,correct,413
sub-07,259,low_activation,congruent,correct,601
sub-07,260,low_activation,congruent,correct,567
sub-07,261,low_activation,congruent,correct,476
sub-07,262,low_activation,congruent,correct,543
sub-07,263,low_activation,incongruent,incorrect,10
sub-07,264,low_activation,congruent,correct,667
sub-07,265,low_activation,congruent,correct,933
sub-07,266,low_activation,congruent,correct,509
sub-07,267,low_activation,incongruent,correct,593
sub-07,268,low_activation,incongruent,correct,363
sub-07,269,low_activation,congruent,correct,611
sub-07,270,low_activation,congruent,correct,481
sub-07,271,low_activation,congruent,correct,517
sub-07,272,low_activation,congruent,correct,477
sub-07,273,low_activation,incongruent,correct,477
sub-07,274,low_activation,congruent,correct,465
sub-07,275,low_activation,incongruent,correct,755
sub-07,276,low_activation,incongruent,correct,737
sub-07,277,low_activation,incongruent,correct,473
sub-07,278,low_activation,congruent,correct,545
sub-07,279,low_activation,incongruent,correct,851
sub-07,280,low_activation,incongruent,correct,437
sub-07,281,low_activation,incongruent,correct,314
sub-07,282,low_activation,incongruent,correct,461
sub-07,283,low_activation,incongruent,correct,887
sub-07,284,low_activation,incongruent,correct,627
sub-07,285,low_activation,incongruent,correct,615
sub-07,286,low_activation,congruent,correct,593
sub-07,287,low_activation,incongruent,correct,651
sub-07,288,low_activation,incongruent,correct,453
sub-07,289,low_activation,congruent,correct,549
sub-07,290,low_activation,congruent,correct,513
sub-07,291,low_activation,congruent,correct,465
sub-07,292,low_activation,incongruent,correct,558
sub-07,293,low_activation,incongruent,correct,883
sub-07,294,low_activation,congruent,correct,613
sub-07,295,low_activation,incongruent,correct,559
sub-07,296,low_activation,incongruent,correct,771
sub-07,297,low_activation,incongruent,correct,589
sub-07,298,low_activation,incongruent,correct,561
sub-07,299,low_activation,incongruent,correct,605
sub-07,300,low_activation,incongruent,correct,701
sub-07,301,low_activation,incongruent,correct,603
sub-07,302,low_activation,incongruent,correct,605
sub-07,303,low_activation,congruent,correct,513
sub-07,304,low_activation,incongruent,correct,522
sub-07,305,low_activation,congruent,correct,449
sub-07,306,low_activation,incongruent,correct,556
sub-07,307,low_activation,incongruent,correct,547
sub-07,308,low_activation,incongruent,correct,603
sub-07,309,low_activation,incongruent,correct,701
sub-07,310,low_activation,congruent,correct,783
sub-07,311,low_activation,incongruent,correct,617
sub-07,312,low_activation,congruent,correct,541
sub-07,313,low_activation,congruent,correct,619
sub-07,314,low_activation,incongruent,correct,559
sub-07,315,low_activation,congruent,incorrect,273
sub-07,316,low_activation,incongruent,correct,805
sub-07,317,low_activation,congruent,correct,839
sub-07,318,low_activation,congruent,correct,829
sub-07,319,low_activation,incongruent,correct,732
sub-07,320,low_activation,incongruent,correct,761
sub-07,321,low_activation,congruent,correct,615
sub-07,322,low_activation,incongruent,correct,829
sub-07,323,low_activation,incongruent,correct,831
sub-07,324,low_activation,incongruent,correct,581
sub-07,325,low_activation,congruent,correct,573
sub-07,326,low_activation,incongruent,correct,689
sub-07,327,low_activation,congruent,correct,425
sub-07,328,low_activation,incongruent,correct,665
sub-07,329,low_activation,congruent,correct,427
sub-07,330,low_activation,congruent,correct,813
sub-07,331,low_activation,congruent,correct,705
sub-07,332,low_activation,incongruent,correct,607
sub-07,333,low_activation,congruent,correct,671
sub-07,334,low_activation,congruent,correct,445
sub-07,335,low_activation,congruent,correct,473
sub-07,336,low_activation,incongruent,correct,1122
sub-07,337,low_activation,incongruent,correct,1001
sub-07,338,low_activation,incongruent,correct,1067
sub-07,339,low_activation,congruent,correct,457
sub-07,340,low_activation,congruent,correct,477
sub-07,341,low_activation,congruent,correct,579
sub-07,342,low_activation,incongruent,correct,735
sub-07,343,low_activation,congruent,correct,515
sub-07,344,low_activation,congruent,correct,689
sub-07,345,low_activation,incongruent,correct,500
sub-07,346,low_activation,incongruent,correct,757
sub-07,347,low_activation,incongruent,correct,577
sub-07,348,low_activation,congruent,correct,349
sub-07,349,low_activation,incongruent,correct,772
sub-07,350,low_activation,congruent,incorrect,489
sub-07,351,low_activation,incongruent,correct,792
sub-07,352,low_activation,incongruent,correct,405
sub-07,353,low_activation,congruent,correct,745
sub-07,354,low_activation,incongruent,correct,743
sub-07,355,low_activation,congruent,correct,650
sub-07,356,low_activation,incongruent,correct,503
sub-07,357,low_activation,incongruent,correct,535
sub-07,358,low_activation,congruent,correct,721
sub-07,359,low_activation,incongruent,correct,591
sub-07,360,low_activation,congruent,correct,717
sub-07,361,low_activation,congruent,correct,579
sub-07,362,low_activation,incongruent,correct,581
sub-07,363,low_activation,congruent,correct,505
sub-07,364,low_activation,incongruent,correct,617
sub-07,365,low_activation,congruent,correct,499
sub-07,366,low_activation,congruent,correct,462
sub-07,367,low_activation,incongruent,correct,709
sub-07,368,low_activation,incongruent,correct,667
sub-07,369,low_activation,incongruent,correct,529
sub-07,370,low_activation,congruent,correct,303
sub-07,371,low_activation,incongruent,correct,701
sub-07,372,low_activation,congruent,correct,519
sub-07,373,low_activation,congruent,correct,433
sub-07,374,low_activation,congruent,correct,637
sub-07,375,low_activation,congruent,incorrect,11
sub-07,376,low_activation,incongruent,correct,839
sub-07,377,low_activation,congruent,correct,527
sub-07,378,low_activation,incongruent,correct,537
sub-07,379,low_activation,incongruent,correct,515
sub-07,380,low_activation,congruent,correct,593
sub-07,381,low_activation,congruent,correct,501
sub-07,382,low_activation,congruent,correct,543
sub-07,383,low_activation,congruent,correct,481
sub-07,384,low_activation,incongruent,correct,603
sub-07,385,low_activation,congruent,correct,693
sub-07,386,low_activation,congruent,correct,465
sub-07,387,low_activation,incongruent,correct,532
sub-07,388,low_activation,congruent,,
sub-07,389,low_activation,incongruent,correct,619
sub-07,390,low_activation,incongruent,correct,817
sub-07,391,low_activation,incongruent,,
sub-07,392,low_activation,incongruent,correct,743
sub-07,393,low_activation,incongruent,correct,766
sub-07,394,low_activation,congruent,correct,453
sub-07,395,low_activation,congruent,correct,1099
sub-07,396,low_activation,incongruent,correct,587
sub-07,397,low_activation,congruent,correct,863
sub-07,398,low_activation,incongruent,,
sub-07,399,low_activation,incongruent,correct,709
sub-07,400,low_activation,incongruent,correct,569
sub-07,401,low_activation,incongruent,correct,579
sub-07,402,low_activation,congruent,correct,541
sub-07,403,low_activation,congruent,correct,605
sub-07,404,low_activation,congruent,correct,505
sub-07,405,low_activation,congruent,correct,455
sub-07,406,low_activation,incongruent,correct,754
sub-07,407,low_activation,congruent,correct,534
sub-07,408,low_activation,congruent,correct,509
sub-07,409,low_activation,congruent,correct,525
sub-07,410,low_activation,congruent,correct,459
sub-07,411,low_activation,congruent,correct,393
sub-07,412,low_activation,incongruent,correct,473
sub-07,413,low_activation,congruent,correct,565
sub-07,414,low_activation,incongruent,correct,963
sub-07,415,low_activation,incongruent,correct,523
sub-07,416,low_activation,congruent,correct,603
sub-07,417,low_activation,congruent,correct,438
sub-07,418,low_activation,incongruent,correct,803
sub-07,419,low_activation,incongruent,correct,655
sub-07,420,low_activation,incongruent,correct,443
sub-07,421,low_activation,congruent,correct,693
sub-07,422,low_activation,incongruent,correct,477
sub-07,423,low_activation,congruent,correct,521
sub-07,424,low_activation,congruent,correct,483
sub-07,425,low_activation,congruent,correct,697
sub-07,426,low_activation,congruent,correct,493
sub-07,427,low_activation,congruent,correct,463
sub-07,428,low_activation,incongruent,correct,541
sub-07,429,low_activation,congruent,correct,541
sub-07,430,low_activation,congruent,correct,339
sub-07,431,low_activation,congruent,correct,683
sub-07,432,low_activation,incongruent,correct,573
sub-07,433,low_activation,congruent,correct,666
sub-07,434,low_activation,congruent,correct,563
sub-07,435,low_activation,incongruent,correct,525
sub-07,436,low_activation,incongruent,correct,445
sub-07,437,low_activation,incongruent,correct,649
sub-07,438,low_activation,incongruent,correct,769
sub-07,439,low_activation,congruent,correct,753
sub-07,440,low_activation,congruent,correct,505
sub-07,441,low_activation,incongruent,correct,741
sub-07,442,low_activation,congruent,correct,535
sub-07,443,low_activation,incongruent,correct,475
sub-07,444,low_activation,incongruent,correct,543
sub-07,445,low_activation,congruent,correct,555
sub-07,446,low_activation,congruent,correct,1199
sub-07,447,low_activation,congruent,correct,607
sub-07,448,low_activation,congruent,correct,681
sub-07,449,low_activation,congruent,correct,797
sub-07,450,low_activation,incongruent,correct,1461
sub-07,451,low_activation,incongruent,correct,525
sub-07,452,low_activation,congruent,correct,837
sub-07,453,low_activation,incongruent,correct,879
sub-07,454,low_activation,congruent,correct,715
sub-07,455,low_activation,congruent,correct,581
sub-07,456,low_activation,incongruent,correct,671
sub-07,457,low_activation,incongruent,correct,495
sub-07,458,low_activation,congruent,correct,609
sub-07,459,low_activation,incongruent,correct,1495
sub-07,460,low_activation,congruent,correct,651
sub-07,461,low_activation,congruent,correct,697
sub-07,462,low_activation,incongruent,correct,1049
sub-07,463,low_activation,incongruent,correct,673
sub-07,464,low_activation,incongruent,correct,607
sub-07,465,low_activation,congruent,correct,755
sub-07,466,low_activation,congruent,correct,553
sub-07,467,low_activation,incongruent,correct,660
sub-07,468,low_activation,incongruent,correct,879
sub-07,469,low_activation,congruent,correct,647
sub-07,470,low_activation,incongruent,correct,777
sub-07,471,low_activation,congruent,correct,533
sub-07,472,low_activation,incongruent,correct,631
sub-07,473,low_activation,incongruent,correct,790
sub-07,474,low_activation,incongruent,correct,947
sub-07,475,low_activation,congruent,correct,595
sub-07,476,low_activation,incongruent,correct,515
sub-07,477,low_activation,incongruent,correct,597
sub-07,478,low_activation,congruent,correct,527
sub-07,479,low_activation,incongruent,correct,719
sub-07,480,low_activation,incongruent,correct,581
sub-07,481,low_activation,incongruent,,
sub-07,482,low_activation,congruent,correct,471
sub-07,483,low_activation,incongruent,correct,1095
sub-07,484,low_activation,incongruent,correct,611
sub-07,485,low_activation,congruent,correct,481
sub-07,486,low_activation,incongruent,correct,53
sub-07,487,low_activation,congruent,correct,457
sub-07,488,low_activation,congruent,correct,485
sub-07,489,low_activation,congruent,correct,311
sub-07,490,low_activation,congruent,correct,567
sub-07,491,low_activation,incongruent,correct,642
sub-07,492,low_activation,congruent,correct,507
sub-07,493,low_activation,congruent,correct,509
sub-07,494,low_activation,incongruent,correct,843
sub-07,495,low_activation,incongruent,correct,573
sub-07,496,low_activation,congruent,correct,538
sub-07,497,low_activation,incongruent,correct,831
sub-07,498,low_activation,incongruent,correct,395
sub-07,499,low_activation,incongruent,correct,443
sub-07,500,low_activation,congruent,correct,535
sub-07,501,low_activation,incongruent,correct,939
sub-07,502,low_activation,congruent,correct,641
sub-07,503,low_activation,incongruent,correct,539
sub-07,504,low_activation,incongruent,correct,901
sub-07,505,low_activation,congruent,correct,663
sub-07,506,low_activation,congruent,correct,603
sub-07,507,low_activation,congruent,correct,659
sub-07,508,low_activation,congruent,correct,647
sub-07,509,low_activation,congruent,correct,719
sub-07,510,low_activation,congruent,correct,689
sub-07,511,low_activation,incongruent,correct,533
sub-07,512,low_activation,incongruent,correct,817
sub-07,513,low_activation,congruent,correct,603
sub-07,514,low_activation,incongruent,correct,667
sub-07,515,low_activation,incongruent,correct,483
sub-07,516,low_activation,congruent,correct,562
sub-07,517,low_activation,congruent,correct,501
sub-07,518,low_activation,incongruent,correct,823
sub-07,519,low_activation,congruent,correct,499
sub-07,520,low_activation,congruent,correct,749
sub-07,521,low_activation,congruent,correct,545
sub-07,522,low_activation,incongruent,correct,671
sub-07,523,low_activation,congruent,correct,769
sub-07,524,low_activation,congruent,correct,551
sub-07,525,low_activation,incongruent,correct,677
sub-07,526,low_activation,congruent,correct,591
sub-07,527,low_activation,incongruent,correct,412
sub-07,528,low_activation,incongruent,correct,529
sub-07,529,low_activation,incongruent,correct,539
sub-07,530,low_activation,incongruent,correct,891
sub-07,531,low_activation,incongruent,correct,371
sub-07,532,low_activation,incongruent,correct,661
sub-07,533,low_activation,congruent,correct,927
sub-07,534,low_activation,congruent,correct,383
sub-07,535,low_activation,incongruent,correct,613
sub-07,536,low_activation,incongruent,correct,551
sub-07,537,low_activation,congruent,correct,589
sub-07,538,low_activation,congruent,correct,998
sub-07,539,low_activation,congruent,correct,525
sub-07,540,low_activation,congruent,correct,657
sub-07,541,low_activation,congruent,correct,523
sub-07,542,low_activation,congruent,correct,475
sub-07,543,low_activation,congruent,correct,475
sub-07,544,low_activation,congruent,correct,1031
sub-07,545,low_activation,congruent,correct,695
sub-07,546,low_activation,congruent,correct,539
sub-07,547,low_activation,congruent,,
sub-07,548,low_activation,incongruent,,
sub-07,549,low_activation,congruent,correct,599
sub-07,550,low_activation,incongruent,correct,1077
sub-07,551,low_activation,incongruent,correct,653
sub-07,552,low_activation,incongruent,correct,903
sub-07,553,low_activation,congruent,correct,613
sub-07,554,low_activation,congruent,correct,583
sub-07,555,low_activation,incongruent,correct,637
sub-07,556,low_activation,congruent,correct,631
sub-07,557,low_activation,incongruent,correct,651
sub-07,558,low_activation,incongruent,correct,573
sub-07,559,low_activation,incongruent,correct,559
sub-07,560,low_activation,incongruent,correct,505
sub-07,561,low_activation,congruent,correct,543
sub-07,562,low_activation,incongruent,correct,663
sub-07,563,low_activation,congruent,correct,265
sub-07,564,low_activation,congruent,correct,537
sub-07,565,low_activation,incongruent,correct,725
sub-07,566,low_activation,congruent,correct,833
sub-07,567,low_activation,congruent,correct,403
sub-07,568,low_activation,incongruent,correct,625
sub-07,569,low_activation,incongruent,correct,537
sub-07,570,low_activation,incongruent,correct,581
sub-07,571,low_activation,incongruent,correct,445
sub-07,572,low_activation,incongruent,correct,493
sub-07,573,low_activation,incongruent,correct,527
sub-07,574,low_activation,incongruent,correct,671
sub-07,575,low_activation,congruent,correct,591
sub-07,576,low_activation,incongruent,correct,991
sub-07,577,low_activation,congruent,correct,1021
sub-07,578,low_activation,congruent,correct,630
sub-07,579,low_activation,congruent,correct,410
sub-07,580,low_activation,congruent,correct,537
sub-07,581,low_activation,incongruent,incorrect,621
sub-07,582,low_activation,congruent,correct,474
sub-07,583,low_activation,incongruent,correct,845
sub-07,584,low_activation,congruent,correct,552
sub-07,585,low_activation,incongruent,correct,575
sub-07,586,low_activation,incongruent,correct,842
sub-07,587,low_activation,congruent,correct,1029
sub-07,588,low_activation,incongruent,correct,687
sub-07,589,low_activation,congruent,correct,478
sub-07,590,low_activation,congruent,correct,647
sub-07,591,low_activation,incongruent,correct,652
sub-07,592,low_activation,congruent,correct,723
sub-07,593,low_activation,incongruent,correct,809
sub-07,594,low_activation,congruent,correct,634
sub-07,595,low_activation,incongruent,correct,773
sub-07,596,low_activation,incongruent,correct,534
sub-07,597,low_activation,congruent,correct,503
sub-07,598,low_activation,incongruent,correct,563
sub-07,599,low_activation,congruent,correct,795
sub-07,600,low_activation,incongruent,correct,581
sub-07,601,low_activation,incongruent,correct,346
sub-07,602,low_activation,congruent,correct,697
sub-07,603,low_activation,congruent,correct,641
sub-07,604,low_activation,incongruent,correct,637
sub-07,605,low_activation,congruent,correct,757
sub-07,606,low_activation,incongruent,correct,699
sub-07,607,low_activation,congruent,correct,657
sub-07,608,low_activation,incongruent,correct,565
sub-07,609,low_activation,congruent,correct,611
sub-07,610,low_activation,incongruent,correct,591
sub-07,611,low_activation,congruent,correct,582
sub-07,612,low_activation,congruent,correct,553
sub-07,613,low_activation,congruent,correct,517
sub-07,614,low_activation,incongruent,correct,929
sub-07,615,low_activation,congruent,correct,633
sub-07,616,low_activation,incongruent,correct,710
sub-07,617,low_activation,congruent,correct,707
sub-07,618,low_activation,incongruent,correct,645
sub-07,619,low_activation,congruent,correct,571
sub-07,620,low_activation,congruent,correct,549
sub-07,621,low_activation,congruent,correct,535
sub-07,622,low_activation,congruent,correct,508
sub-07,623,low_activation,incongruent,correct,733
sub-07,624,low_activation,incongruent,correct,583
sub-07,625,low_activation,congruent,correct,731
sub-07,626,low_activation,incongruent,correct,559
sub-07,627,low_activation,congruent,correct,719
sub-07,628,low_activation,congruent,correct,581
sub-07,629,low_activation,incongruent,correct,717
sub-07,630,low_activation,incongruent,incorrect,653
sub-07,631,low_activation,congruent,correct,1531
sub-07,632,low_activation,incongruent,correct,519
sub-07,633,low_activation,incongruent,correct,1189
sub-07,634,low_activation,incongruent,correct,731
sub-07,635,low_activation,incongruent,correct,438
sub-07,636,low_activation,incongruent,correct,623
sub-07,637,low_activation,incongruent,correct,975
sub-07,638,low_activation,congruent,correct,709
sub-07,639,low_activation,congruent,,
sub-07,640,low_activation,incongruent,correct,663
sub-07,641,low_activation,incongruent,correct,589
sub-07,642,low_activation,congruent,correct,775
sub-07,643,low_activation,congruent,correct,585
sub-07,644,low_activation,congruent,correct,606
sub-07,645,low_activation,congruent,correct,567
sub-07,646,low_activation,incongruent,correct,735
sub-07,647,low_activation,incongruent,correct,996
sub-07,648,low_activation,incongruent,correct,481
sub-07,649,low_activation,congruent,correct,601
sub-07,650,low_activation,incongruent,correct,561
sub-07,651,low_activation,incongruent,correct,647
sub-07,652,low_activation,congruent,correct,1025
sub-07,653,low_activation,incongruent,correct,595
sub-07,654,low_activation,incongruent,correct,701
sub-07,655,low_activation,incongruent,correct,581
sub-07,656,low_activation,incongruent,correct,585
sub-07,657,low_activation,congruent,correct,863
sub-07,658,low_activation,congruent,correct,1257
sub-07,659,low_activation,incongruent,correct,553
sub-07,660,low_activation,incongruent,correct,503
sub-07,661,low_activation,congruent,correct,757
sub-07,662,low_activation,incongruent,correct,741
sub-07,663,low_activation,incongruent,correct,715
sub-07,664,low_activation,congruent,correct,696
sub-07,665,low_activation,incongruent,correct,591
sub-07,666,low_activation,congruent,correct,569
sub-07,667,low_activation,congruent,correct,807
sub-07,668,low_activation,congruent,correct,549
sub-07,669,low_activation,incongruent,correct,621
sub-07,670,low_activation,congruent,correct,600
sub-07,671,low_activation,congruent,correct,695
sub-07,672,low_activation,incongruent,correct,615
sub-07,673,low_activation,congruent,correct,911
sub-07,674,low_activation,incongruent,correct,633
sub-07,675,low_activation,incongruent,correct,615
sub-07,676,low_activation,congruent,correct,419
sub-07,677,low_activation,congruent,correct,529
sub-07,678,low_activation,incongruent,correct,594
sub-07,679,low_activation,incongruent,correct,753
sub-07,680,low_activation,incongruent,correct,379
sub-07,681,low_activation,incongruent,correct,467
sub-07,682,low_activation,congruent,correct,471
sub-07,683,low_activation,congruent,correct,466
sub-07,684,low_activation,incongruent,correct,551
sub-07,685,low_activation,incongruent,correct,753
sub-07,686,low_activation,congruent,correct,664
sub-07,687,low_activation,incongruent,correct,671
sub-07,688,low_activation,congruent,correct,523
sub-07,689,low_activation,congruent,correct,527
sub-07,690,low_activation,incongruent,correct,497
sub-07,691,low_activation,congruent,correct,931
sub-07,692,low_activation,congruent,correct,515
sub-07,693,low_activation,congruent,correct,445
sub-07,694,low_activation,congruent,correct,463
sub-07,695,low_activation,incongruent,correct,953
sub-07,696,low_activation,incongruent,correct,579
sub-07,697,low_activation,incongruent,correct,541
sub-07,698,low_activation,congruent,correct,438
sub-07,699,low_activation,congruent,correct,611
sub-07,700,low_activation,incongruent,,
sub-07,701,low_activation,congruent,correct,589
sub-07,702,low_activation,congruent,correct,323
sub-07,703,low_activation,incongruent,correct,538
sub-07,704,low_activation,congruent,correct,343
sub-07,705,low_activation,incongruent,correct,265
sub-07,706,low_activation,incongruent,correct,537
sub-07,707,low_activation,congruent,correct,537
sub-07,708,low_activation,congruent,correct,457
sub-07,709,low_activation,congruent,correct,453
sub-07,710,low_activation,incongruent,incorrect,511
sub-07,711,low_activation,congruent,incorrect,669
sub-07,712,low_activation,congruent,correct,863
sub-07,713,low_activation,congruent,correct,1126
sub-07,714,low_activation,congruent,correct,457
sub-07,715,low_activation,congruent,correct,505
sub-07,716,low_activation,congruent,correct,587
sub-07,717,low_activation,congruent,correct,461
sub-07,718,low_activation,congruent,correct,541
sub-07,719,low_activation,incongruent,correct,495
sub-07,720,low_activation,incongruent,correct,357
sub-07,721,low_activation,congruent,,
sub-07,722,low_activation,congruent,correct,459
sub-07,723,low_activation,congruent,correct,423
sub-07,724,low_activation,congruent,correct,337
sub-07,725,low_activation,incongruent,correct,605
sub-07,726,low_activation,congruent,correct,631
sub-07,727,low_activation,incongruent,correct,627
sub-07,728,low_activation,incongruent,,
sub-07,729,low_activation,incongruent,correct,743
sub-07,730,low_activation,congruent,correct,1213
sub-07,731,low_activation,incongruent,correct,587
sub-07,732,low_activation,incongruent,correct,503
sub-07,733,low_activation,incongruent,,
sub-07,734,low_activation,incongruent,correct,515
sub-07,735,low_activation,incongruent,correct,701
sub-07,736,low_activation,congruent,correct,883
sub-07,737,low_activation,incongruent,correct,639
sub-07,738,low_activation,congruent,correct,541
sub-07,739,low_activation,incongruent,correct,651
sub-07,740,low_activation,incongruent,correct,579
sub-07,741,low_activation,incongruent,correct,643
sub-07,742,low_activation,congruent,correct,653
sub-07,743,low_activation,congruent,correct,893
sub-07,744,low_activation,congruent,correct,617
sub-07,745,low_activation,incongruent,correct,607
sub-07,746,low_activation,incongruent,correct,343
sub-07,747,low_activation,incongruent,correct,595
sub-07,748,low_activation,incongruent,correct,1195
