sub_ID,trial_number,physical_activation,trial_congruency,resp_correctness,reaction_times
sub-15,1,high_activation,congruent,correct,749
sub-15,2,high_activation,congruent,correct,715
sub-15,3,high_activation,congruent,correct,581
sub-15,4,high_activation,congruent,correct,687
sub-15,5,high_activation,congruent,correct,601
sub-15,6,high_activation,congruent,correct,508
sub-15,7,high_activation,congruent,correct,675
sub-15,8,high_activation,congruent,correct,554
sub-15,9,high_activation,incongruent,correct,705
sub-15,10,high_activation,congruent,correct,532
sub-15,11,high_activation,congruent,correct,415
sub-15,12,high_activation,incongruent,correct,613
sub-15,13,high_activation,congruent,correct,550
sub-15,14,high_activation,incongruent,correct,645
sub-15,15,high_activation,incongruent,correct,563
sub-15,16,high_activation,congruent,correct,723
sub-15,17,high_activation,incongruent,correct,686
sub-15,18,high_activation,incongruent,correct,682
sub-15,19,high_activation,congruent,correct,541
sub-15,20,high_activation,incongruent,correct,685
sub-15,21,high_activation,congruent,correct,652
sub-15,22,high_activation,congruent,correct,507
sub-15,23,high_activation,congruent,correct,598
sub-15,24,high_activation,incongruent,correct,609
sub-15,25,high_activation,incongruent,correct,495
sub-15,26,high_activation,congruent,correct,676
sub-15,27,high_activation,congruent,correct,603
sub-15,28,high_activation,incongruent,correct,909
sub-15,29,high_activation,incongruent,correct,671
sub-15,30,high_activation,congruent,correct,779
sub-15,31,high_activation,congruent,correct,698
sub-15,32,high_activation,congruent,correct,651
sub-15,33,high_activation,incongruent,correct,779
sub-15,34,high_activation,incongruent,correct,681
sub-15,35,high_activation,incongruent,correct,517
sub-15,36,high_activation,incongruent,correct,719
sub-15,37,high_activation,incongruent,correct,634
sub-15,38,high_activation,congruent,correct,962
sub-15,39,high_activation,incongruent,correct,813
sub-15,40,high_activation,congruent,correct,550
sub-15,41,high_activation,congruent,correct,673
sub-15,42,high_activation,incongruent,correct,652
sub-15,43,high_activation,congruent,correct,617
sub-15,44,high_activation,incongruent,correct,717
sub-15,45,high_activation,congruent,correct,543
sub-15,46,high_activation,congruent,correct,563
sub-15,47,high_activation,incongruent,correct,693
sub-15,48,high_activation,congruent,correct,597
sub-15,49,high_activation,congruent,correct,605
sub-15,50,high_activation,incongruent,correct,718
sub-15,51,high_activation,congruent,correct,561
sub-15,52,high_activation,incongruent,correct,674
sub-15,53,high_activation,incongruent,correct,741
sub-15,54,high_activation,congruent,correct,650
sub-15,55,high_activation,incongruent,correct,677
sub-15,56,high_activation,congruent,correct,703
sub-15,57,high_activation,congruent,correct,534
sub-15,58,high_activation,incongruent,correct,645
sub-15,59,high_activation,incongruent,correct,497
sub-15,60,high_activation,incongruent,correct,437
sub-15,61,high_activation,incongruent,correct,682
sub-15,62,high_activation,incongruent,correct,747
sub-15,63,high_activation,incongruent,correct,611
sub-15,64,high_activation,incongruent,correct,657
sub-15,65,high_activation,congruent,correct,647
sub-15,66,high_activation,congruent,correct,994
sub-15,67,high_activation,incongruent,correct,651
sub-15,68,high_activation,congruent,correct,591
sub-15,69,high_activation,incongruent,correct,667
sub-15,70,high_activation,incongruent,correct,551
sub-15,71,high_activation,incongruent,correct,577
sub-15,72,high_activation,incongruent,correct,716
sub-15,73,high_activation,incongruent,correct,769
sub-15,74,high_activation,congruent,correct,589
sub-15,75,high_activation,congruent,correct,502
sub-15,76,high_activation,congruent,correct,347
sub-15,77,high_activation,congruent,correct,581
sub-15,78,high_activation,congruent,correct,561
sub-15,79,high_activation,congruent,correct,456
sub-15,80,high_activation,incongruent,correct,593
sub-15,81,high_activation,incongruent,correct,633
sub-15,82,high_activation,incongruent,correct,593
sub-15,83,high_activation,congruent,correct,619
sub-15,84,high_activation,congruent,correct,583
sub-15,85,high_activation,congruent,correct,559
sub-15,86,high_activation,incongruent,correct,586
sub-15,87,high_activation,incongruent,correct,527
sub-15,88,high_activation,congruent,correct,537
sub-15,89,high_activation,incongruent,correct,603
sub-15,90,high_activation,congruent,correct,525
sub-15,91,high_activation,incongruent,correct,607
sub-15,92,high_activation,congruent,correct,583
sub-15,93,high_activation,congruent,correct,489
sub-15,94,high_activation,congruent,correct,471
sub-15,95,high_activation,incongruent,correct,732
sub-15,96,high_activation,congruent,correct,597
sub-15,97,high_activation,incongruent,correct,727
sub-15,98,high_activation,incongruent,correct,613
sub-15,99,high_activation,congruent,correct,603
sub-15,100,high_activation,congruent,correct,516
sub-15,101,high_activation,incongruent,correct,547
sub-15,102,high_activation,incongruent,correct,622
sub-15,103,high_activation,incongruent,correct,503
sub-15,104,high_activation,incongruent,correct,411
sub-15,105,high_activation,incongruent,correct,519
sub-15,106,high_activation,congruent,correct,549
sub-15,107,high_activation,congruent,correct,377
sub-15,108,high_activation,congruent,correct,521
sub-15,109,high_activation,congruent,correct,530
sub-15,110,high_activation,incongruent,correct,643
sub-15,111,high_activation,incongruent,correct,578
sub-15,112,high_activation,incongruent,correct,564
sub-15,113,high_activation,congruent,correct,566
sub-15,114,high_activation,incongruent,correct,607
sub-15,115,high_activation,congruent,correct,425
sub-15,116,high_activation,incongruent,correct,553
sub-15,117,high_activation,congruent,correct,498
sub-15,118,high_activation,congruent,correct,544
sub-15,119,high_activation,incongruent,correct,594
sub-15,120,high_activation,congruent,correct,538
sub-15,121,high_activation,congruent,correct,550
sub-15,122,high_activation,congruent,correct,505
sub-15,123,high_activation,incongruent,correct,539
sub-15,124,high_activation,congruent,correct,589
sub-15,125,high_activation,congruent,correct,445
sub-15,126,high_activation,congruent,correct,371
sub-15,127,high_activation,congruent,correct,320
sub-15,128,high_activation,congruent,correct,435
sub-15,129,high_activation,incongruent,correct,524
sub-15,130,high_activation,incongruent,incorrect,325
sub-15,131,high_activation,congruent,correct,667
sub-15,132,high_activation,congruent,correct,459
sub-15,133,high_activation,incongruent,correct,605
sub-15,134,high_activation,incongruent,correct,684
sub-15,135,high_activation,incongruent,correct,521
sub-15,136,high_activation,incongruent,correct,569
sub-15,137,high_activation,congruent,correct,735
sub-15,138,high_activation,incongruent,correct,608
sub-15,139,high_activation,congruent,correct,480
sub-15,140,high_activation,congruent,correct,512
sub-15,141,high_activation,congruent,correct,539
sub-15,142,high_activation,incongruent,correct,585
sub-15,143,high_activation,incongruent,correct,638
sub-15,144,high_activation,incongruent,correct,649
sub-15,145,high_activation,incongruent,correct,606
sub-15,146,high_activation,congruent,correct,651
sub-15,147,high_activation,congruent,correct,542
sub-15,148,high_activation,incongruent,correct,545
sub-15,149,high_activation,incongruent,correct,487
sub-15,150,high_activation,congruent,correct,555
sub-15,151,high_activation,congruent,correct,535
sub-15,152,high_activation,congruent,correct,559
sub-15,153,high_activation,congruent,correct,516
sub-15,154,high_activation,congruent,correct,542
sub-15,155,high_activation,congruent,correct,492
sub-15,156,high_activation,congruent,correct,764
sub-15,157,high_activation,congruent,correct,573
sub-15,158,high_activation,incongruent,correct,581
sub-15,159,high_activation,incongruent,correct,561
sub-15,160,high_activation,congruent,correct,563
sub-15,161,high_activation,incongruent,correct,523
sub-15,162,high_activation,incongruent,correct,582
sub-15,163,high_activation,congruent,correct,550
sub-15,164,high_activation,incongruent,correct,565
sub-15,165,high_activation,incongruent,correct,513
sub-15,166,high_activation,incongruent,correct,461
sub-15,167,high_activation,incongruent,correct,515
sub-15,168,high_activation,incongruent,correct,494
sub-15,169,high_activation,congruent,correct,485
sub-15,170,high_activation,incongruent,correct,539
sub-15,171,high_activation,incongruent,correct,586
sub-15,172,high_activation,congruent,correct,541
sub-15,173,high_activation,congruent,correct,469
sub-15,174,high_activation,congruent,correct,417
sub-15,175,high_activation,congruent,correct,393
sub-15,176,high_activation,incongruent,correct,569
sub-15,177,high_activation,congruent,correct,547
sub-15,178,high_activation,congruent,correct,382
sub-15,179,high_activation,congruent,correct,397
sub-15,180,high_activation,incongruent,correct,758
sub-15,181,high_activation,incongruent,correct,512
sub-15,182,high_activation,congruent,correct,536
sub-15,183,high_activation,incongruent,correct,717
sub-15,184,high_activation,incongruent,correct,455
sub-15,185,high_activation,congruent,correct,467
sub-15,186,high_activation,incongruent,correct,461
sub-15,187,high_activation,congruent,correct,564
sub-15,188,high_activation,incongruent,correct,604
sub-15,189,high_activation,incongruent,correct,502
sub-15,190,high_activation,congruent,correct,500
sub-15,191,high_activation,congruent,correct,535
sub-15,192,high_activation,incongruent,correct,630
sub-15,193,high_activation,congruent,correct,591
sub-15,194,high_activation,congruent,correct,574
sub-15,195,high_activation,congruent,correct,890
sub-15,196,high_activation,incongruent,correct,570
sub-15,197,high_activation,incongruent,correct,613
sub-15,198,high_activation,incongruent,correct,509
sub-15,199,high_activation,congruent,correct,489
sub-15,200,high_activation,congruent,correct,580
sub-15,201,high_activation,congruent,correct,370
sub-15,202,high_activation,incongruent,correct,565
sub-15,203,high_activation,congruent,correct,379
sub-15,204,high_activation,incongruent,correct,583
sub-15,205,high_activation,congruent,correct,503
sub-15,206,high_activation,congruent,correct,559
sub-15,207,high_activation,incongruent,correct,552
sub-15,208,high_activation,incongruent,correct,512
sub-15,209,high_activation,congruent,correct,826
sub-15,210,high_activation,incongruent,correct,533
sub-15,211,high_activation,incongruent,correct,523
sub-15,212,high_activation,incongruent,correct,618
sub-15,213,high_activation,congruent,correct,434
sub-15,214,high_activation,incongruent,correct,521
sub-15,215,high_activation,incongruent,correct,560
sub-15,216,high_activation,congruent,correct,515
sub-15,217,high_activation,congruent,correct,543
sub-15,218,high_activation,congruent,correct,524
sub-15,219,high_activation,congruent,incorrect,506
sub-15,220,high_activation,incongruent,correct,495
sub-15,221,high_activation,incongruent,correct,467
sub-15,222,high_activation,congruent,correct,477
sub-15,223,high_activation,congruent,correct,466
sub-15,224,high_activation,congruent,correct,335
sub-15,225,high_activation,incongruent,correct,610
sub-15,226,high_activation,congruent,correct,491
sub-15,227,high_activation,incongruent,correct,544
sub-15,228,high_activation,congruent,correct,410
sub-15,229,high_activation,incongruent,correct,662
sub-15,230,high_activation,incongruent,correct,510
sub-15,231,high_activation,congruent,correct,523
sub-15,232,high_activation,congruent,correct,507
sub-15,233,high_activation,incongruent,correct,546
sub-15,234,high_activation,incongruent,correct,550
sub-15,235,high_activation,incongruent,correct,551
sub-15,236,high_activation,congruent,correct,480
sub-15,237,high_activation,incongruent,correct,553
sub-15,238,high_activation,incongruent,correct,449
sub-15,239,high_activation,congruent,correct,533
sub-15,240,high_activation,incongruent,correct,509
sub-15,241,high_activation,incongruent,correct,810
sub-15,242,high_activation,incongruent,correct,563
sub-15,243,high_activation,congruent,correct,487
sub-15,244,high_activation,congruent,incorrect,551
sub-15,245,high_activation,incongruent,correct,581
sub-15,246,high_activation,incongruent,correct,581
sub-15,247,high_activation,incongruent,correct,537
sub-15,248,high_activation,congruent,correct,470
sub-15,249,high_activation,incongruent,correct,758
sub-15,250,high_activation,incongruent,correct,488
sub-15,251,high_activation,incongruent,correct,634
sub-15,252,high_activation,congruent,correct,525
sub-15,253,high_activation,congruent,correct,423
sub-15,254,high_activation,incongruent,correct,499
sub-15,255,high_activation,incongruent,correct,450
sub-15,256,high_activation,congruent,correct,478
sub-15,257,high_activation,congruent,correct,497
sub-15,258,high_activation,congruent,correct,561
sub-15,259,high_activation,congruent,correct,491
sub-15,260,high_activation,congruent,correct,475
sub-15,261,high_activation,congruent,correct,511
sub-15,262,high_activation,incongruent,correct,505
sub-15,263,high_activation,incongruent,correct,541
sub-15,264,high_activation,congruent,correct,571
sub-15,265,high_activation,congruent,correct,410
sub-15,266,high_activation,congruent,correct,661
sub-15,267,high_activation,incongruent,correct,568
sub-15,268,high_activation,incongruent,correct,495
sub-15,269,high_activation,incongruent,correct,586
sub-15,270,high_activation,congruent,correct,438
sub-15,271,high_activation,incongruent,incorrect,447
sub-15,272,high_activation,congruent,correct,541
sub-15,273,high_activation,congruent,correct,537
sub-15,274,high_activation,incongruent,correct,533
sub-15,275,high_activation,incongruent,correct,729
sub-15,276,high_activation,congruent,correct,475
sub-15,277,high_activation,incongruent,correct,467
sub-15,278,high_activation,incongruent,correct,491
sub-15,279,high_activation,incongruent,correct,394
sub-15,280,high_activation,congruent,correct,434
sub-15,281,high_activation,congruent,correct,426
sub-15,282,high_activation,congruent,correct,521
sub-15,283,high_activation,congruent,correct,471
sub-15,284,high_activation,incongruent,correct,518
sub-15,285,high_activation,incongruent,correct,465
sub-15,286,high_activation,congruent,correct,421
sub-15,287,high_activation,incongruent,correct,517
sub-15,288,high_activation,incongruent,correct,549
sub-15,289,high_activation,congruent,correct,489
sub-15,290,high_activation,incongruent,incorrect,346
sub-15,291,high_activation,congruent,correct,579
sub-15,292,high_activation,incongruent,correct,497
sub-15,293,high_activation,incongruent,correct,642
sub-15,294,high_activation,incongruent,correct,591
sub-15,295,high_activation,congruent,correct,424
sub-15,296,high_activation,congruent,correct,654
sub-15,297,high_activation,incongruent,correct,589
sub-15,298,high_activation,incongruent,correct,658
sub-15,299,high_activation,incongruent,correct,475
sub-15,300,high_activation,incongruent,correct,475
sub-15,301,high_activation,congruent,correct,520
sub-15,302,high_activation,congruent,correct,549
sub-15,303,high_activation,congruent,correct,526
sub-15,304,high_activation,incongruent,correct,519
sub-15,305,high_activation,incongruent,correct,467
sub-15,306,high_activation,incongruent,correct,577
sub-15,307,high_activation,incongruent,correct,552
sub-15,308,high_activation,incongruent,correct,475
sub-15,309,high_activation,congruent,correct,690
sub-15,310,high_activation,congruent,correct,511
sub-15,311,high_activation,congruent,correct,556
sub-15,312,high_activation,congruent,correct,564
sub-15,313,high_activation,incongruent,correct,666
sub-15,314,high_activation,incongruent,correct,457
sub-15,315,high_activation,incongruent,correct,393
sub-15,316,high_activation,incongruent,correct,367
sub-15,317,high_activation,incongruent,correct,662
sub-15,318,high_activation,congruent,correct,501
sub-15,319,high_activation,incongruent,correct,538
sub-15,320,high_activation,congruent,correct,389
sub-15,321,high_activation,congruent,correct,521
sub-15,322,high_activation,congruent,correct,531
sub-15,323,high_activation,congruent,correct,533
sub-15,324,high_activation,incongruent,correct,473
sub-15,325,high_activation,incongruent,correct,537
sub-15,326,high_activation,congruent,correct,537
sub-15,327,high_activation,congruent,correct,633
sub-15,328,high_activation,incongruent,correct,553
sub-15,329,high_activation,incongruent,correct,397
sub-15,330,high_activation,incongruent,correct,487
sub-15,331,high_activation,congruent,correct,565
sub-15,332,high_activation,incongruent,correct,618
sub-15,333,high_activation,incongruent,correct,471
sub-15,334,high_activation,incongruent,correct,525
sub-15,335,high_activation,incongruent,correct,587
sub-15,336,high_activation,congruent,correct,497
sub-15,337,high_activation,congruent,correct,483
sub-15,338,high_activation,congruent,correct,391
sub-15,339,high_activation,congruent,correct,481
sub-15,340,high_activation,incongruent,correct,539
sub-15,341,high_activation,congruent,correct,473
sub-15,342,high_activation,congruent,correct,489
sub-15,343,high_activation,incongruent,correct,694
sub-15,344,high_activation,congruent,correct,513
sub-15,345,high_activation,incongruent,correct,577
sub-15,346,high_activation,incongruent,correct,669
sub-15,347,high_activation,incongruent,correct,494
sub-15,348,high_activation,incongruent,correct,561
sub-15,349,high_activation,incongruent,correct,610
sub-15,350,high_activation,congruent,correct,531
sub-15,351,high_activation,incongruent,correct,589
sub-15,352,high_activation,incongruent,correct,481
sub-15,353,high_activation,incongruent,correct,489
sub-15,354,high_activation,incongruent,correct,467
sub-15,355,high_activation,incongruent,correct,587
sub-15,356,high_activation,congruent,correct,481
sub-15,357,high_activation,congruent,correct,516
sub-15,358,high_activation,incongruent,correct,519
sub-15,359,high_activation,incongruent,correct,563
sub-15,360,high_activation,incongruent,correct,534
sub-15,361,high_activation,congruent,correct,533
sub-15,362,high_activation,congruent,correct,457
sub-15,363,high_activation,congruent,correct,498
sub-15,364,high_activation,congruent,correct,555
sub-15,365,high_activation,incongruent,correct,483
sub-15,366,high_activation,congruent,correct,650
sub-15,367,high_activation,congruent,correct,535
sub-15,368,high_activation,congruent,correct,535
sub-15,369,high_activation,incongruent,correct,483
sub-15,370,high_activation,congruent,correct,538
sub-15,371,high_activation,incongruent,correct,479
sub-15,372,high_activation,congruent,correct,571
sub-15,373,high_activation,incongruent,correct,509
sub-15,374,high_activation,incongruent,correct,526
sub-15,375,high_activation,incongruent,correct,394
sub-15,376,high_activation,incongruent,correct,426
sub-15,377,high_activation,incongruent,correct,451
sub-15,378,high_activation,congruent,correct,427
sub-15,379,high_activation,incongruent,correct,436
sub-15,380,high_activation,congruent,correct,449
sub-15,381,high_activation,congruent,correct,543
sub-15,382,high_activation,congruent,correct,469
sub-15,383,high_activation,incongruent,correct,523
sub-15,384,high_activation,incongruent,correct,471
sub-15,385,high_activation,congruent,correct,529
sub-15,386,high_activation,incongruent,correct,469
sub-15,387,high_activation,incongruent,correct,441
sub-15,388,high_activation,congruent,correct,499
sub-15,389,high_activation,congruent,correct,452
sub-15,390,high_activation,congruent,correct,482
sub-15,391,high_activation,congruent,correct,392
sub-15,392,high_activation,congruent,correct,389
sub-15,393,high_activation,congruent,correct,455
sub-15,394,high_activation,incongruent,correct,597
sub-15,395,high_activation,incongruent,correct,587
sub-15,396,high_activation,incongruent,correct,450
sub-15,397,high_activation,congruent,correct,581
sub-15,398,high_activation,incongruent,correct,798
sub-15,399,high_activation,incongruent,correct,514
sub-15,400,high_activation,congruent,correct,542
sub-15,401,high_activation,congruent,correct,522
sub-15,402,high_activation,congruent,correct,553
sub-15,403,high_activation,congruent,correct,546
sub-15,404,high_activation,congruent,correct,633
sub-15,405,high_activation,congruent,correct,485
sub-15,406,high_activation,congruent,correct,669
sub-15,407,high_activation,incongruent,correct,626
sub-15,408,high_activation,congruent,correct,562
sub-15,409,high_activation,congruent,correct,541
sub-15,410,high_activation,incongruent,correct,568
sub-15,411,high_activation,incongruent,correct,521
sub-15,412,high_activation,incongruent,correct,515
sub-15,413,high_activation,incongruent,correct,595
sub-15,414,high_activation,congruent,correct,389
sub-15,415,high_activation,congruent,correct,521
sub-15,416,high_activation,congruent,correct,719
sub-15,417,high_activation,incongruent,correct,613
sub-15,418,high_activation,congruent,correct,492
sub-15,419,high_activation,congruent,correct,477
sub-15,420,high_activation,congruent,correct,538
sub-15,421,high_activation,congruent,correct,491
sub-15,422,high_activation,incongruent,correct,602
sub-15,423,high_activation,congruent,correct,565
sub-15,424,high_activation,congruent,correct,494
sub-15,425,high_activation,congruent,correct,682
sub-15,426,high_activation,congruent,correct,493
sub-15,427,high_activation,congruent,correct,685
sub-15,428,high_activation,congruent,correct,516
sub-15,429,high_activation,incongruent,correct,512
sub-15,430,high_activation,incongruent,correct,485
sub-15,431,high_activation,congruent,correct,574
sub-15,432,high_activation,congruent,correct,581
sub-15,433,high_activation,incongruent,correct,524
sub-15,434,high_activation,incongruent,correct,652
sub-15,435,high_activation,congruent,correct,751
sub-15,436,high_activation,incongruent,correct,641
sub-15,437,high_activation,incongruent,correct,565
sub-15,438,high_activation,incongruent,correct,449
sub-15,439,high_activation,congruent,correct,887
sub-15,440,high_activation,congruent,correct,538
sub-15,441,high_activation,congruent,correct,473
sub-15,442,high_activation,congruent,correct,581
sub-15,443,high_activation,congruent,correct,492
sub-15,444,high_activation,congruent,correct,470
sub-15,445,high_activation,congruent,correct,403
sub-15,446,high_activation,incongruent,correct,524
sub-15,447,high_activation,incongruent,correct,567
sub-15,448,high_activation,congruent,correct,505
sub-15,449,high_activation,incongruent,correct,463
sub-15,450,high_activation,incongruent,correct,557
sub-15,451,high_activation,incongruent,correct,775
sub-15,452,high_activation,congruent,correct,551
sub-15,453,high_activation,incongruent,correct,452
sub-15,454,high_activation,congruent,correct,524
sub-15,455,high_activation,congruent,correct,492
sub-15,456,high_activation,congruent,correct,433
sub-15,457,high_activation,incongruent,correct,518
sub-15,458,high_activation,incongruent,correct,493
sub-15,459,high_activation,incongruent,correct,625
sub-15,460,high_activation,incongruent,correct,531
sub-15,461,high_activation,congruent,correct,701
sub-15,462,high_activation,incongruent,correct,561
sub-15,463,high_activation,incongruent,correct,525
sub-15,464,high_activation,congruent,correct,498
sub-15,465,high_activation,incongruent,correct,491
sub-15,466,high_activation,incongruent,correct,423
sub-15,467,high_activation,incongruent,correct,509
sub-15,468,high_activation,congruent,correct,538
sub-15,469,high_activation,incongruent,correct,599
sub-15,470,high_activation,incongruent,incorrect,376
sub-15,471,high_activation,congruent,correct,506
sub-15,472,high_activation,congruent,correct,499
sub-15,473,high_activation,congruent,correct,514
sub-15,474,high_activation,congruent,correct,621
sub-15,475,high_activation,incongruent,correct,565
sub-15,476,high_activation,congruent,correct,633
sub-15,477,high_activation,congruent,correct,508
sub-15,478,high_activation,incongruent,correct,489
sub-15,479,high_activation,congruent,correct,413
sub-15,480,high_activation,incongruent,correct,629
sub-15,481,high_activation,congruent,correct,520
sub-15,482,high_activation,incongruent,correct,549
sub-15,483,high_activation,incongruent,correct,539
sub-15,484,high_activation,incongruent,correct,536
sub-15,485,high_activation,incongruent,correct,477
sub-15,486,high_activation,congruent,correct,557
sub-15,487,high_activation,congruent,correct,532
sub-15,488,high_activation,incongruent,correct,580
sub-15,489,high_activation,incongruent,correct,535
sub-15,490,high_activation,incongruent,correct,582
sub-15,491,high_activation,incongruent,correct,485
sub-15,492,high_activation,incongruent,correct,476
sub-15,493,high_activation,incongruent,correct,521
sub-15,494,high_activation,incongruent,,NaN
sub-15,495,high_activation,incongruent,correct,607
sub-15,496,high_activation,congruent,correct,543
sub-15,497,high_activation,congruent,correct,616
sub-15,498,high_activation,congruent,correct,600
sub-15,499,high_activation,incongruent,correct,663
sub-15,500,high_activation,congruent,correct,485
sub-15,501,high_activation,congruent,correct,523
sub-15,502,high_activation,incongruent,correct,543
sub-15,503,high_activation,congruent,correct,535
sub-15,504,high_activation,congruent,correct,465
sub-15,505,high_activation,incongruent,,NaN
sub-15,506,high_activation,incongruent,correct,634
sub-15,507,high_activation,congruent,correct,532
sub-15,508,high_activation,congruent,correct,580
sub-15,509,high_activation,congruent,correct,716
sub-15,510,high_activation,congruent,correct,881
sub-15,511,high_activation,incongruent,correct,565
sub-15,512,high_activation,congruent,correct,757
sub-15,513,high_activation,congruent,correct,601
sub-15,514,high_activation,incongruent,correct,635
sub-15,515,high_activation,incongruent,correct,602
sub-15,516,high_activation,incongruent,correct,565
sub-15,517,high_activation,incongruent,correct,611
sub-15,518,high_activation,congruent,correct,711
sub-15,519,high_activation,congruent,correct,574
sub-15,520,high_activation,congruent,,NaN
sub-15,521,high_activation,congruent,correct,514
sub-15,522,high_activation,congruent,correct,495
sub-15,523,high_activation,congruent,correct,559
sub-15,524,high_activation,congruent,correct,425
sub-15,525,high_activation,congruent,correct,501
sub-15,526,high_activation,incongruent,correct,570
sub-15,527,high_activation,congruent,correct,619
sub-15,528,high_activation,incongruent,correct,583
sub-15,529,high_activation,incongruent,correct,530
sub-15,530,high_activation,incongruent,correct,528
sub-15,531,high_activation,incongruent,correct,473
sub-15,532,high_activation,congruent,correct,502
sub-15,533,high_activation,incongruent,correct,503
sub-15,534,high_activation,incongruent,correct,525
sub-15,535,high_activation,incongruent,correct,587
sub-15,536,high_activation,congruent,correct,501
sub-15,537,high_activation,incongruent,correct,535
sub-15,538,high_activation,congruent,incorrect,592
sub-15,539,high_activation,congruent,correct,483
sub-15,540,high_activation,congruent,correct,527
sub-15,541,high_activation,congruent,correct,502
sub-15,542,high_activation,incongruent,correct,609
sub-15,543,high_activation,incongruent,correct,671
sub-15,544,high_activation,incongruent,correct,523
sub-15,545,high_activation,incongruent,correct,505
sub-15,546,high_activation,congruent,correct,504
sub-15,547,high_activation,incongruent,correct,536
sub-15,548,high_activation,congruent,correct,539
sub-15,549,high_activation,incongruent,,NaN
sub-15,550,high_activation,incongruent,correct,525
sub-15,551,high_activation,congruent,correct,535
sub-15,552,high_activation,incongruent,correct,544
sub-15,553,high_activation,incongruent,,NaN
sub-15,554,high_activation,congruent,correct,787
sub-15,555,high_activation,congruent,correct,485
sub-15,556,high_activation,incongruent,correct,629
sub-15,557,high_activation,incongruent,correct,558
sub-15,558,high_activation,congruent,correct,518
sub-15,559,high_activation,incongruent,correct,565
sub-15,560,high_activation,congruent,correct,531
sub-15,561,high_activation,incongruent,correct,545
sub-15,562,high_activation,congruent,correct,458
sub-15,563,high_activation,congruent,correct,555
sub-15,564,high_activation,congruent,correct,390
sub-15,565,high_activation,congruent,correct,397
sub-15,566,high_activation,congruent,correct,399
sub-15,567,high_activation,incongruent,correct,946
sub-15,568,high_activation,incongruent,correct,525
sub-15,569,high_activation,congruent,correct,465
sub-15,570,high_activation,congruent,,NaN
sub-15,571,high_activation,congruent,correct,519
sub-15,572,high_activation,congruent,correct,601
sub-15,573,high_activation,incongruent,correct,554
sub-15,574,high_activation,congruent,correct,437
sub-15,575,high_activation,congruent,correct,485
sub-15,576,high_activation,congruent,correct,472
sub-15,577,high_activation,incongruent,correct,638
sub-15,578,high_activation,congruent,correct,479
sub-15,579,high_activation,incongruent,correct,710
sub-15,580,high_activation,congruent,correct,675
sub-15,581,high_activation,congruent,correct,500
sub-15,582,high_activation,congruent,correct,479
sub-15,583,high_activation,incongruent,correct,566
sub-15,584,high_activation,congruent,correct,422
sub-15,585,high_activation,incongruent,correct,478
sub-15,586,high_activation,congruent,correct,463
sub-15,587,high_activation,congruent,correct,499
sub-15,588,high_activation,congruent,correct,481
sub-15,589,high_activation,incongruent,correct,739
sub-15,590,high_activation,congruent,correct,490
sub-15,591,high_activation,incongruent,correct,539
sub-15,592,high_activation,incongruent,correct,506
sub-15,593,high_activation,incongruent,correct,589
sub-15,594,high_activation,incongruent,correct,477
sub-15,595,high_activation,incongruent,correct,403
sub-15,596,high_activation,incongruent,correct,409
sub-15,597,high_activation,congruent,correct,533
sub-15,598,high_activation,incongruent,correct,585
sub-15,599,high_activation,congruent,correct,645
sub-15,600,high_activation,incongruent,correct,567
sub-15,601,high_activation,incongruent,correct,522
sub-15,602,high_activation,incongruent,correct,632
sub-15,603,high_activation,congruent,correct,549
sub-15,604,high_activation,congruent,correct,475
sub-15,605,high_activation,congruent,correct,439
sub-15,606,high_activation,incongruent,correct,553
sub-15,607,high_activation,congruent,correct,564
sub-15,608,high_activation,congruent,correct,467
sub-15,609,high_activation,incongruent,correct,613
sub-15,610,high_activation,congruent,correct,461
sub-15,611,high_activation,congruent,correct,791
sub-15,612,high_activation,congruent,correct,543
sub-15,613,high_activation,incongruent,correct,568
sub-15,614,high_activation,congruent,correct,507
sub-15,615,high_activation,incongruent,correct,539
sub-15,616,high_activation,congruent,correct,879
sub-15,617,high_activation,congruent,correct,459
sub-15,618,high_activation,congruent,correct,506
sub-15,619,high_activation,incongruent,correct,735
sub-15,620,high_activation,incongruent,correct,593
sub-15,621,high_activation,incongruent,correct,481
sub-15,622,high_activation,congruent,correct,585
sub-15,623,high_activation,congruent,correct,616
sub-15,624,high_activation,incongruent,incorrect,481
sub-15,625,high_activation,incongruent,correct,583
sub-15,626,high_activation,incongruent,correct,492
sub-15,627,high_activation,incongruent,correct,693
sub-15,628,high_activation,congruent,,NaN
sub-15,629,high_activation,congruent,correct,568
sub-15,630,high_activation,incongruent,correct,631
sub-15,631,high_activation,incongruent,correct,509
sub-15,632,high_activation,incongruent,correct,794
sub-15,633,high_activation,congruent,correct,525
sub-15,634,high_activation,incongruent,correct,682
sub-15,635,high_activation,congruent,correct,497
sub-15,636,high_activation,congruent,correct,745
sub-15,637,high_activation,incongruent,correct,566
sub-15,638,high_activation,incongruent,correct,979
sub-15,639,high_activation,incongruent,correct,453
sub-15,640,high_activation,incongruent,correct,703
sub-15,641,high_activation,incongruent,correct,809
sub-15,642,high_activation,congruent,correct,500
sub-15,643,high_activation,congruent,correct,605
sub-15,644,high_activation,incongruent,correct,617
sub-15,645,high_activation,incongruent,correct,779
sub-15,646,high_activation,congruent,correct,720
sub-15,647,high_activation,congruent,correct,533
sub-15,648,high_activation,congruent,correct,566
sub-15,649,high_activation,congruent,correct,802
sub-15,650,high_activation,incongruent,correct,482
sub-15,651,high_activation,incongruent,correct,559
sub-15,652,high_activation,incongruent,correct,459
sub-15,653,high_activation,incongruent,correct,544
sub-15,654,high_activation,congruent,correct,555
sub-15,655,high_activation,incongruent,correct,554
sub-15,656,high_activation,congruent,correct,567
sub-15,657,high_activation,congruent,correct,545
sub-15,658,high_activation,congruent,correct,637
sub-15,659,high_activation,incongruent,correct,566
sub-15,660,high_activation,incongruent,correct,789
sub-15,661,high_activation,congruent,correct,591
sub-15,662,high_activation,congruent,correct,431
sub-15,663,high_activation,incongruent,correct,544
sub-15,664,high_activation,congruent,correct,535
sub-15,665,high_activation,congruent,correct,370
sub-15,666,high_activation,congruent,correct,397
sub-15,667,high_activation,incongruent,correct,461
sub-15,668,high_activation,congruent,correct,593
sub-15,669,high_activation,congruent,correct,440
sub-15,670,high_activation,incongruent,incorrect,560
sub-15,671,high_activation,congruent,correct,651
sub-15,672,high_activation,incongruent,correct,637
sub-15,673,high_activation,incongruent,correct,457
sub-15,674,high_activation,congruent,correct,534
sub-15,675,high_activation,incongruent,incorrect,481
sub-15,676,high_activation,incongruent,incorrect,555
sub-15,677,high_activation,incongruent,correct,587
sub-15,678,high_activation,incongruent,correct,525
sub-15,679,high_activation,incongruent,correct,516
sub-15,680,high_activation,congruent,correct,597
sub-15,681,high_activation,congruent,correct,491
sub-15,682,high_activation,congruent,correct,459
sub-15,683,high_activation,congruent,correct,457
sub-15,684,high_activation,incongruent,correct,576
sub-15,685,high_activation,congruent,correct,517
sub-15,686,high_activation,incongruent,correct,426
sub-15,687,high_activation,incongruent,correct,464
sub-15,688,high_activation,incongruent,correct,449
sub-15,689,high_activation,incongruent,correct,584
sub-15,690,high_activation,congruent,correct,604
sub-15,691,high_activation,incongruent,correct,554
sub-15,692,high_activation,incongruent,correct,627
sub-15,693,high_activation,congruent,correct,565
sub-15,694,high_activation,incongruent,correct,519
sub-15,695,high_activation,congruent,correct,645
sub-15,696,high_activation,incongruent,correct,761
sub-15,697,high_activation,congruent,correct,709
sub-15,698,high_activation,congruent,correct,549
sub-15,699,high_activation,incongruent,correct,547
sub-15,700,high_activation,congruent,correct,701
sub-15,701,high_activation,incongruent,correct,593
sub-15,702,high_activation,incongruent,correct,559
sub-15,703,high_activation,congruent,correct,533
sub-15,704,high_activation,congruent,correct,506
sub-15,705,high_activation,congruent,correct,529
sub-15,706,high_activation,congruent,correct,497
sub-15,707,high_activation,incongruent,correct,565
sub-15,708,high_activation,incongruent,correct,487
sub-15,709,high_activation,congruent,correct,505
sub-15,710,high_activation,incongruent,correct,495
sub-15,711,high_activation,congruent,correct,1085
sub-15,712,high_activation,congruent,,NaN
sub-15,713,high_activation,incongruent,correct,631
sub-15,714,high_activation,congruent,correct,683
sub-15,715,high_activation,congruent,correct,537
sub-15,716,high_activation,incongruent,correct,585
sub-15,717,high_activation,congruent,correct,577
sub-15,718,high_activation,incongruent,,NaN
sub-15,719,high_activation,incongruent,correct,609
sub-15,720,high_activation,congruent,correct,911
sub-15,721,high_activation,congruent,correct,507
sub-15,722,high_activation,incongruent,correct,518
sub-15,723,high_activation,congruent,correct,543
sub-15,724,high_activation,incongruent,correct,534
sub-15,725,high_activation,incongruent,correct,554
sub-15,726,high_activation,incongruent,correct,541
sub-15,727,high_activation,incongruent,correct,522
sub-15,728,high_activation,incongruent,correct,455
sub-15,729,high_activation,congruent,correct,589
sub-15,730,high_activation,congruent,correct,543
sub-15,731,high_activation,congruent,correct,456
sub-15,732,high_activation,incongruent,correct,610
sub-15,733,high_activation,congruent,correct,547
sub-15,734,high_activation,congruent,correct,603
sub-15,735,high_activation,congruent,correct,603
sub-15,736,high_activation,congruent,correct,585
sub-15,737,high_activation,congruent,correct,488
sub-15,738,high_activation,congruent,correct,577
sub-15,739,high_activation,congruent,correct,532
sub-15,740,high_activation,congruent,correct,489
sub-15,741,high_activation,incongruent,correct,611
sub-15,742,high_activation,congruent,correct,493
sub-15,743,high_activation,congruent,correct,365
sub-15,744,high_activation,congruent,correct,564
sub-15,745,high_activation,incongruent,correct,716
sub-15,746,high_activation,congruent,correct,467
sub-15,747,high_activation,incongruent,correct,652
sub-15,748,high_activation,congruent,correct,516
sub-15,749,high_activation,congruent,correct,509
sub-15,750,high_activation,congruent,correct,645
sub-15,751,high_activation,congruent,correct,643
sub-15,752,high_activation,incongruent,correct,580
sub-15,753,high_activation,incongruent,correct,503
sub-15,754,high_activation,congruent,correct,550
sub-15,755,high_activation,incongruent,correct,509
sub-15,756,high_activation,incongruent,correct,519
sub-15,757,high_activation,incongruent,correct,550
sub-15,758,high_activation,incongruent,correct,557
sub-15,759,high_activation,congruent,correct,507
sub-15,760,high_activation,congruent,correct,491
sub-15,761,high_activation,congruent,correct,513
sub-15,762,high_activation,congruent,correct,725
sub-15,763,high_activation,incongruent,correct,613
sub-15,764,high_activation,congruent,correct,607
sub-15,765,high_activation,incongruent,correct,501
sub-15,766,high_activation,congruent,correct,526
sub-15,1,low_activation,congruent,correct,563
sub-15,2,low_activation,incongruent,correct,551
sub-15,3,low_activation,congruent,correct,527
sub-15,4,low_activation,incongruent,correct,687
sub-15,5,low_activation,incongruent,correct,561
sub-15,6,low_activation,congruent,correct,453
sub-15,7,low_activation,congruent,correct,529
sub-15,8,low_activation,congruent,correct,479
sub-15,9,low_activation,incongruent,correct,679
sub-15,10,low_activation,incongruent,correct,609
sub-15,11,low_activation,incongruent,correct,551
sub-15,12,low_activation,incongruent,correct,609
sub-15,13,low_activation,incongruent,correct,590
sub-15,14,low_activation,congruent,correct,581
sub-15,15,low_activation,congruent,,NaN
sub-15,16,low_activation,incongruent,correct,601
sub-15,17,low_activation,congruent,correct,621
sub-15,18,low_activation,incongruent,correct,655
sub-15,19,low_activation,incongruent,correct,517
sub-15,20,low_activation,congruent,correct,573
sub-15,21,low_activation,incongruent,correct,649
sub-15,22,low_activation,incongruent,correct,583
sub-15,23,low_activation,incongruent,correct,526
sub-15,24,low_activation,incongruent,correct,605
sub-15,25,low_activation,incongruent,correct,623
sub-15,26,low_activation,congruent,correct,627
sub-15,27,low_activation,incongruent,correct,609
sub-15,28,low_activation,congruent,correct,567
sub-15,29,low_activation,congruent,correct,526
sub-15,30,low_activation,congruent,correct,617
sub-15,31,low_activation,congruent,correct,515
sub-15,32,low_activation,incongruent,correct,682
sub-15,33,low_activation,congruent,correct,527
sub-15,34,low_activation,congruent,correct,598
sub-15,35,low_activation,incongruent,correct,587
sub-15,36,low_activation,congruent,correct,499
sub-15,37,low_activation,congruent,correct,483
sub-15,38,low_activation,incongruent,correct,565
sub-15,39,low_activation,congruent,correct,602
sub-15,40,low_activation,incongruent,correct,497
sub-15,41,low_activation,incongruent,correct,695
sub-15,42,low_activation,congruent,correct,497
sub-15,43,low_activation,congruent,correct,571
sub-15,44,low_activation,incongruent,correct,613
sub-15,45,low_activation,congruent,correct,585
sub-15,46,low_activation,incongruent,correct,689
sub-15,47,low_activation,congruent,correct,565
sub-15,48,low_activation,incongruent,correct,601
sub-15,49,low_activation,incongruent,correct,563
sub-15,50,low_activation,incongruent,correct,697
sub-15,51,low_activation,congruent,correct,699
sub-15,52,low_activation,incongruent,correct,577
sub-15,53,low_activation,incongruent,correct,663
sub-15,54,low_activation,incongruent,correct,531
sub-15,55,low_activation,congruent,correct,519
sub-15,56,low_activation,congruent,correct,653
sub-15,57,low_activation,congruent,correct,437
sub-15,58,low_activation,incongruent,correct,921
sub-15,59,low_activation,congruent,correct,563
sub-15,60,low_activation,congruent,correct,747
sub-15,61,low_activation,incongruent,correct,521
sub-15,62,low_activation,congruent,correct,517
sub-15,63,low_activation,congruent,correct,419
sub-15,64,low_activation,incongruent,correct,521
sub-15,65,low_activation,incongruent,correct,455
sub-15,66,low_activation,congruent,correct,789
sub-15,67,low_activation,congruent,correct,614
sub-15,68,low_activation,incongruent,correct,547
sub-15,69,low_activation,congruent,correct,529
sub-15,70,low_activation,incongruent,correct,595
sub-15,71,low_activation,incongruent,correct,493
sub-15,72,low_activation,incongruent,correct,565
sub-15,73,low_activation,incongruent,correct,555
sub-15,74,low_activation,incongruent,correct,601
sub-15,75,low_activation,congruent,correct,511
sub-15,76,low_activation,incongruent,correct,565
sub-15,77,low_activation,incongruent,correct,575
sub-15,78,low_activation,incongruent,correct,495
sub-15,79,low_activation,incongruent,correct,589
sub-15,80,low_activation,congruent,correct,579
sub-15,81,low_activation,incongruent,correct,590
sub-15,82,low_activation,incongruent,correct,471
sub-15,83,low_activation,congruent,correct,539
sub-15,84,low_activation,congruent,correct,542
sub-15,85,low_activation,congruent,correct,455
sub-15,86,low_activation,incongruent,correct,571
sub-15,87,low_activation,congruent,correct,551
sub-15,88,low_activation,congruent,correct,531
sub-15,89,low_activation,incongruent,correct,585
sub-15,90,low_activation,incongruent,correct,589
sub-15,91,low_activation,congruent,correct,559
sub-15,92,low_activation,congruent,correct,477
sub-15,93,low_activation,congruent,correct,489
sub-15,94,low_activation,incongruent,correct,561
sub-15,95,low_activation,congruent,correct,505
sub-15,96,low_activation,incongruent,incorrect,541
sub-15,97,low_activation,congruent,correct,609
sub-15,98,low_activation,incongruent,correct,564
sub-15,99,low_activation,congruent,correct,546
sub-15,100,low_activation,congruent,correct,561
sub-15,101,low_activation,congruent,correct,555
sub-15,102,low_activation,incongruent,correct,539
sub-15,103,low_activation,incongruent,correct,557
sub-15,104,low_activation,incongruent,correct,571
sub-15,105,low_activation,incongruent,correct,501
sub-15,106,low_activation,incongruent,correct,533
sub-15,107,low_activation,congruent,correct,521
sub-15,108,low_activation,congruent,correct,587
sub-15,109,low_activation,incongruent,correct,637
sub-15,110,low_activation,incongruent,correct,517
sub-15,111,low_activation,incongruent,correct,577
sub-15,112,low_activation,incongruent,correct,443
sub-15,113,low_activation,congruent,correct,573
sub-15,114,low_activation,incongruent,correct,555
sub-15,115,low_activation,incongruent,correct,535
sub-15,116,low_activation,congruent,correct,529
sub-15,117,low_activation,congruent,correct,526
sub-15,118,low_activation,congruent,correct,551
sub-15,119,low_activation,incongruent,correct,509
sub-15,120,low_activation,congruent,correct,471
sub-15,121,low_activation,incongruent,correct,483
sub-15,122,low_activation,congruent,correct,521
sub-15,123,low_activation,incongruent,correct,507
sub-15,124,low_activation,congruent,correct,421
sub-15,125,low_activation,incongruent,correct,541
sub-15,126,low_activation,congruent,correct,611
sub-15,127,low_activation,incongruent,correct,695
sub-15,128,low_activation,congruent,correct,539
sub-15,129,low_activation,incongruent,correct,585
sub-15,130,low_activation,congruent,correct,547
sub-15,131,low_activation,incongruent,correct,629
sub-15,132,low_activation,incongruent,correct,779
sub-15,133,low_activation,incongruent,correct,727
sub-15,134,low_activation,incongruent,correct,563
sub-15,135,low_activation,incongruent,correct,678
sub-15,136,low_activation,incongruent,correct,617
sub-15,137,low_activation,congruent,correct,529
sub-15,138,low_activation,congruent,correct,615
sub-15,139,low_activation,incongruent,correct,557
sub-15,140,low_activation,incongruent,correct,521
sub-15,141,low_activation,incongruent,correct,435
sub-15,142,low_activation,congruent,correct,538
sub-15,143,low_activation,congruent,correct,570
sub-15,144,low_activation,congruent,correct,613
sub-15,145,low_activation,congruent,correct,549
sub-15,146,low_activation,congruent,correct,519
sub-15,147,low_activation,incongruent,correct,543
sub-15,148,low_activation,congruent,correct,557
sub-15,149,low_activation,incongruent,correct,507
sub-15,150,low_activation,incongruent,correct,669
sub-15,151,low_activation,incongruent,correct,591
sub-15,152,low_activation,congruent,correct,549
sub-15,153,low_activation,incongruent,correct,573
sub-15,154,low_activation,incongruent,correct,559
sub-15,155,low_activation,congruent,correct,537
sub-15,156,low_activation,congruent,correct,521
sub-15,157,low_activation,congruent,correct,521
sub-15,158,low_activation,congruent,correct,389
sub-15,159,low_activation,congruent,correct,467
sub-15,160,low_activation,incongruent,correct,645
sub-15,161,low_activation,congruent,correct,553
sub-15,162,low_activation,congruent,correct,699
sub-15,163,low_activation,congruent,correct,567
sub-15,164,low_activation,incongruent,correct,479
sub-15,165,low_activation,incongruent,correct,553
sub-15,166,low_activation,incongruent,correct,537
sub-15,167,low_activation,congruent,correct,593
sub-15,168,low_activation,incongruent,correct,565
sub-15,169,low_activation,incongruent,correct,483
sub-15,170,low_activation,incongruent,correct,519
sub-15,171,low_activation,congruent,correct,617
sub-15,172,low_activation,congruent,correct,443
sub-15,173,low_activation,congruent,correct,493
sub-15,174,low_activation,incongruent,correct,559
sub-15,175,low_activation,congruent,correct,541
sub-15,176,low_activation,congruent,correct,443
sub-15,177,low_activation,incongruent,correct,631
sub-15,178,low_activation,incongruent,correct,639
sub-15,179,low_activation,incongruent,correct,621
sub-15,180,low_activation,congruent,correct,529
sub-15,181,low_activation,incongruent,correct,565
sub-15,182,low_activation,incongruent,incorrect,435
sub-15,183,low_activation,congruent,correct,485
sub-15,184,low_activation,incongruent,correct,563
sub-15,185,low_activation,incongruent,correct,501
sub-15,186,low_activation,incongruent,correct,421
sub-15,187,low_activation,incongruent,correct,477
sub-15,188,low_activation,incongruent,correct,559
sub-15,189,low_activation,congruent,correct,775
sub-15,190,low_activation,incongruent,correct,579
sub-15,191,low_activation,incongruent,correct,517
sub-15,192,low_activation,congruent,correct,541
sub-15,193,low_activation,congruent,correct,499
sub-15,194,low_activation,incongruent,correct,561
sub-15,195,low_activation,incongruent,correct,620
sub-15,196,low_activation,incongruent,correct,594
sub-15,197,low_activation,congruent,correct,571
sub-15,198,low_activation,congruent,correct,505
sub-15,199,low_activation,congruent,correct,633
sub-15,200,low_activation,congruent,correct,593
sub-15,201,low_activation,incongruent,correct,613
sub-15,202,low_activation,incongruent,correct,571
sub-15,203,low_activation,congruent,correct,519
sub-15,204,low_activation,incongruent,correct,545
sub-15,205,low_activation,congruent,correct,677
sub-15,206,low_activation,incongruent,correct,597
sub-15,207,low_activation,congruent,correct,618
sub-15,208,low_activation,congruent,correct,595
sub-15,209,low_activation,incongruent,correct,673
sub-15,210,low_activation,incongruent,correct,617
sub-15,211,low_activation,congruent,correct,603
sub-15,212,low_activation,congruent,correct,625
sub-15,213,low_activation,incongruent,correct,443
sub-15,214,low_activation,incongruent,correct,569
sub-15,215,low_activation,congruent,correct,679
sub-15,216,low_activation,incongruent,correct,641
sub-15,217,low_activation,congruent,correct,495
sub-15,218,low_activation,incongruent,correct,607
sub-15,219,low_activation,congruent,correct,605
sub-15,220,low_activation,congruent,correct,668
sub-15,221,low_activation,congruent,correct,525
sub-15,222,low_activation,incongruent,correct,661
sub-15,223,low_activation,congruent,correct,657
sub-15,224,low_activation,congruent,correct,605
sub-15,225,low_activation,incongruent,correct,607
sub-15,226,low_activation,incongruent,correct,681
sub-15,227,low_activation,incongruent,correct,521
sub-15,228,low_activation,incongruent,correct,641
sub-15,229,low_activation,congruent,correct,549
sub-15,230,low_activation,congruent,correct,603
sub-15,231,low_activation,congruent,correct,431
sub-15,232,low_activation,incongruent,correct,599
sub-15,233,low_activation,incongruent,correct,443
sub-15,234,low_activation,incongruent,correct,611
sub-15,235,low_activation,congruent,correct,537
sub-15,236,low_activation,incongruent,correct,499
sub-15,237,low_activation,congruent,correct,523
sub-15,238,low_activation,congruent,correct,631
sub-15,239,low_activation,incongruent,correct,535
sub-15,240,low_activation,congruent,correct,605
sub-15,241,low_activation,congruent,correct,549
sub-15,242,low_activation,incongruent,correct,503
sub-15,243,low_activation,incongruent,correct,523
sub-15,244,low_activation,incongruent,correct,707
sub-15,245,low_activation,incongruent,correct,893
sub-15,246,low_activation,incongruent,correct,643
sub-15,247,low_activation,incongruent,correct,707
sub-15,248,low_activation,congruent,correct,480
sub-15,249,low_activation,incongruent,,NaN
sub-15,250,low_activation,incongruent,correct,588
sub-15,251,low_activation,congruent,correct,589
sub-15,252,low_activation,incongruent,,NaN
sub-15,253,low_activation,congruent,correct,579
sub-15,254,low_activation,congruent,correct,567
sub-15,255,low_activation,congruent,,NaN
sub-15,256,low_activation,congruent,correct,645
sub-15,257,low_activation,incongruent,correct,919
sub-15,258,low_activation,incongruent,correct,559
sub-15,259,low_activation,congruent,correct,511
sub-15,260,low_activation,congruent,correct,751
sub-15,261,low_activation,congruent,correct,619
sub-15,262,low_activation,congruent,correct,575
sub-15,263,low_activation,incongruent,correct,567
sub-15,264,low_activation,congruent,correct,679
sub-15,265,low_activation,congruent,correct,555
sub-15,266,low_activation,incongruent,correct,587
sub-15,267,low_activation,congruent,correct,523
sub-15,268,low_activation,incongruent,correct,517
sub-15,269,low_activation,congruent,correct,513
sub-15,270,low_activation,incongruent,correct,653
sub-15,271,low_activation,incongruent,correct,615
sub-15,272,low_activation,congruent,correct,639
sub-15,273,low_activation,congruent,correct,601
sub-15,274,low_activation,congruent,correct,489
sub-15,275,low_activation,incongruent,correct,566
sub-15,276,low_activation,congruent,correct,489
sub-15,277,low_activation,congruent,correct,559
sub-15,278,low_activation,incongruent,correct,652
sub-15,279,low_activation,congruent,correct,493
sub-15,280,low_activation,incongruent,correct,587
sub-15,281,low_activation,incongruent,correct,573
sub-15,282,low_activation,incongruent,correct,555
sub-15,283,low_activation,congruent,correct,589
sub-15,284,low_activation,incongruent,correct,509
sub-15,285,low_activation,incongruent,correct,559
sub-15,286,low_activation,incongruent,correct,573
sub-15,287,low_activation,congruent,correct,639
sub-15,288,low_activation,incongruent,correct,669
sub-15,289,low_activation,incongruent,correct,605
sub-15,290,low_activation,congruent,correct,521
sub-15,291,low_activation,congruent,correct,583
sub-15,292,low_activation,congruent,correct,391
sub-15,293,low_activation,incongruent,correct,549
sub-15,294,low_activation,congruent,correct,565
sub-15,295,low_activation,congruent,correct,601
sub-15,296,low_activation,incongruent,correct,591
sub-15,297,low_activation,congruent,correct,579
sub-15,298,low_activation,congruent,correct,495
sub-15,299,low_activation,incongruent,correct,527
sub-15,300,low_activation,incongruent,correct,647
sub-15,301,low_activation,incongruent,correct,670
sub-15,302,low_activation,incongruent,correct,549
sub-15,303,low_activation,incongruent,correct,530
sub-15,304,low_activation,congruent,correct,525
sub-15,305,low_activation,congruent,correct,605
sub-15,306,low_activation,incongruent,correct,567
sub-15,307,low_activation,congruent,correct,557
sub-15,308,low_activation,incongruent,correct,569
sub-15,309,low_activation,incongruent,correct,603
sub-15,310,low_activation,incongruent,correct,585
sub-15,311,low_activation,congruent,correct,570
sub-15,312,low_activation,incongruent,correct,557
sub-15,313,low_activation,incongruent,correct,519
sub-15,314,low_activation,congruent,correct,483
sub-15,315,low_activation,congruent,correct,531
sub-15,316,low_activation,congruent,correct,589
sub-15,317,low_activation,incongruent,correct,573
sub-15,318,low_activation,incongruent,correct,525
sub-15,319,low_activation,congruent,correct,587
sub-15,320,low_activation,incongruent,correct,787
sub-15,321,low_activation,incongruent,correct,507
sub-15,322,low_activation,congruent,correct,497
sub-15,323,low_activation,incongruent,correct,587
sub-15,324,low_activation,congruent,correct,547
sub-15,325,low_activation,incongruent,correct,493
sub-15,326,low_activation,congruent,correct,493
sub-15,327,low_activation,incongruent,correct,525
sub-15,328,low_activation,congruent,correct,480
sub-15,329,low_activation,congruent,correct,550
sub-15,330,low_activation,incongruent,correct,527
sub-15,331,low_activation,incongruent,correct,537
sub-15,332,low_activation,incongruent,incorrect,713
sub-15,333,low_activation,incongruent,correct,594
sub-15,334,low_activation,congruent,correct,593
sub-15,335,low_activation,incongruent,correct,589
sub-15,336,low_activation,congruent,correct,507
sub-15,337,low_activation,congruent,correct,579
sub-15,338,low_activation,incongruent,correct,581
sub-15,339,low_activation,congruent,correct,471
sub-15,340,low_activation,incongruent,correct,549
sub-15,341,low_activation,congruent,correct,517
sub-15,342,low_activation,congruent,correct,573
sub-15,343,low_activation,congruent,correct,487
sub-15,344,low_activation,congruent,correct,510
sub-15,345,low_activation,incongruent,correct,543
sub-15,346,low_activation,congruent,correct,573
sub-15,347,low_activation,incongruent,correct,686
sub-15,348,low_activation,congruent,correct,545
sub-15,349,low_activation,congruent,correct,615
sub-15,350,low_activation,incongruent,correct,610
sub-15,351,low_activation,congruent,correct,695
sub-15,352,low_activation,congruent,,NaN
sub-15,353,low_activation,congruent,correct,573
sub-15,354,low_activation,incongruent,correct,597
sub-15,355,low_activation,congruent,correct,629
sub-15,356,low_activation,congruent,correct,623
sub-15,357,low_activation,incongruent,correct,675
sub-15,358,low_activation,incongruent,correct,581
sub-15,359,low_activation,congruent,correct,609
sub-15,360,low_activation,congruent,correct,649
sub-15,361,low_activation,congruent,correct,521
sub-15,362,low_activation,congruent,correct,479
sub-15,363,low_activation,incongruent,correct,619
sub-15,364,low_activation,congruent,,NaN
sub-15,365,low_activation,congruent,correct,501
sub-15,366,low_activation,incongruent,correct,710
sub-15,367,low_activation,incongruent,correct,599
sub-15,368,low_activation,congruent,correct,637
sub-15,369,low_activation,incongruent,correct,643
sub-15,370,low_activation,congruent,correct,537
sub-15,371,low_activation,congruent,correct,651
sub-15,372,low_activation,congruent,correct,609
sub-15,373,low_activation,congruent,,NaN
sub-15,374,low_activation,incongruent,correct,601
sub-15,375,low_activation,incongruent,correct,559
sub-15,376,low_activation,congruent,correct,707
sub-15,377,low_activation,incongruent,correct,680
sub-15,378,low_activation,congruent,correct,839
sub-15,379,low_activation,incongruent,correct,651
sub-15,380,low_activation,incongruent,incorrect,621
sub-15,381,low_activation,congruent,correct,661
sub-15,382,low_activation,congruent,correct,678
sub-15,383,low_activation,incongruent,correct,573
sub-15,384,low_activation,congruent,correct,545
sub-15,385,low_activation,incongruent,correct,509
sub-15,386,low_activation,incongruent,correct,551
sub-15,387,low_activation,incongruent,correct,573
sub-15,388,low_activation,congruent,correct,519
sub-15,389,low_activation,congruent,correct,707
sub-15,390,low_activation,incongruent,correct,635
sub-15,391,low_activation,congruent,correct,642
sub-15,392,low_activation,congruent,correct,677
sub-15,393,low_activation,incongruent,correct,739
sub-15,394,low_activation,congruent,correct,929
sub-15,395,low_activation,congruent,correct,619
sub-15,396,low_activation,congruent,correct,667
sub-15,397,low_activation,incongruent,correct,667
sub-15,398,low_activation,congruent,correct,793
sub-15,399,low_activation,congruent,correct,853
sub-15,400,low_activation,incongruent,correct,543
sub-15,401,low_activation,incongruent,correct,545
sub-15,402,low_activation,incongruent,correct,669
sub-15,403,low_activation,incongruent,correct,543
sub-15,404,low_activation,congruent,correct,501
sub-15,405,low_activation,congruent,correct,574
sub-15,406,low_activation,incongruent,correct,491
sub-15,407,low_activation,congruent,correct,583
sub-15,408,low_activation,incongruent,correct,589
sub-15,409,low_activation,congruent,correct,528
sub-15,410,low_activation,incongruent,correct,555
sub-15,411,low_activation,incongruent,correct,543
sub-15,412,low_activation,congruent,correct,625
sub-15,413,low_activation,incongruent,correct,615
sub-15,414,low_activation,congruent,correct,451
sub-15,415,low_activation,incongruent,correct,507
sub-15,416,low_activation,congruent,correct,563
sub-15,417,low_activation,incongruent,correct,633
sub-15,418,low_activation,congruent,correct,545
sub-15,419,low_activation,congruent,correct,496
sub-15,420,low_activation,congruent,correct,635
sub-15,421,low_activation,incongruent,correct,569
sub-15,422,low_activation,congruent,correct,651
sub-15,423,low_activation,congruent,correct,843
sub-15,424,low_activation,incongruent,correct,597
sub-15,425,low_activation,congruent,correct,525
sub-15,426,low_activation,incongruent,correct,543
sub-15,427,low_activation,incongruent,correct,429
sub-15,428,low_activation,incongruent,correct,541
sub-15,429,low_activation,incongruent,correct,451
sub-15,430,low_activation,congruent,correct,513
sub-15,431,low_activation,incongruent,,NaN
sub-15,432,low_activation,incongruent,correct,549
sub-15,433,low_activation,incongruent,correct,616
sub-15,434,low_activation,congruent,correct,675
sub-15,435,low_activation,congruent,correct,593
sub-15,436,low_activation,congruent,correct,680
sub-15,437,low_activation,incongruent,correct,521
sub-15,438,low_activation,incongruent,correct,493
sub-15,439,low_activation,incongruent,correct,587
sub-15,440,low_activation,incongruent,correct,591
sub-15,441,low_activation,congruent,correct,593
sub-15,442,low_activation,incongruent,correct,547
sub-15,443,low_activation,congruent,correct,606
sub-15,444,low_activation,congruent,correct,513
sub-15,445,low_activation,incongruent,correct,575
sub-15,446,low_activation,incongruent,correct,551
sub-15,447,low_activation,congruent,correct,454
sub-15,448,low_activation,congruent,correct,599
sub-15,449,low_activation,congruent,correct,671
sub-15,450,low_activation,congruent,correct,546
sub-15,451,low_activation,incongruent,correct,527
sub-15,452,low_activation,incongruent,correct,431
sub-15,453,low_activation,incongruent,,NaN
sub-15,454,low_activation,congruent,correct,711
sub-15,455,low_activation,congruent,correct,563
sub-15,456,low_activation,congruent,correct,563
sub-15,457,low_activation,incongruent,,NaN
sub-15,458,low_activation,incongruent,correct,555
sub-15,459,low_activation,congruent,correct,633
sub-15,460,low_activation,incongruent,correct,471
sub-15,461,low_activation,congruent,,NaN
sub-15,462,low_activation,congruent,correct,611
sub-15,463,low_activation,congruent,correct,642
sub-15,464,low_activation,congruent,correct,633
sub-15,465,low_activation,incongruent,correct,582
sub-15,466,low_activation,congruent,correct,505
sub-15,467,low_activation,congruent,correct,499
sub-15,468,low_activation,congruent,correct,491
sub-15,469,low_activation,congruent,correct,498
sub-15,470,low_activation,congruent,correct,565
sub-15,471,low_activation,congruent,correct,455
sub-15,472,low_activation,incongruent,correct,617
sub-15,473,low_activation,congruent,correct,543
sub-15,474,low_activation,incongruent,correct,743
sub-15,475,low_activation,congruent,correct,916
sub-15,476,low_activation,incongruent,correct,713
sub-15,477,low_activation,incongruent,correct,701
sub-15,478,low_activation,congruent,correct,475
sub-15,479,low_activation,congruent,correct,363
sub-15,480,low_activation,congruent,correct,590
sub-15,481,low_activation,incongruent,correct,557
sub-15,482,low_activation,incongruent,correct,442
sub-15,483,low_activation,incongruent,correct,605
sub-15,484,low_activation,incongruent,correct,633
sub-15,485,low_activation,congruent,correct,481
sub-15,486,low_activation,incongruent,correct,415
sub-15,487,low_activation,incongruent,correct,491
sub-15,488,low_activation,congruent,correct,641
sub-15,489,low_activation,incongruent,correct,621
sub-15,490,low_activation,incongruent,correct,713
sub-15,491,low_activation,congruent,correct,590
sub-15,492,low_activation,congruent,correct,587
sub-15,493,low_activation,congruent,correct,635
sub-15,494,low_activation,incongruent,correct,522
sub-15,495,low_activation,incongruent,correct,545
sub-15,496,low_activation,congruent,correct,569
sub-15,497,low_activation,congruent,,NaN
sub-15,498,low_activation,congruent,correct,765
sub-15,499,low_activation,incongruent,correct,561
sub-15,500,low_activation,incongruent,,NaN
sub-15,501,low_activation,incongruent,incorrect,574
sub-15,502,low_activation,incongruent,correct,859
sub-15,503,low_activation,congruent,correct,563
sub-15,504,low_activation,congruent,correct,527
sub-15,505,low_activation,incongruent,correct,621
sub-15,506,low_activation,incongruent,correct,557
sub-15,507,low_activation,incongruent,correct,767
sub-15,508,low_activation,incongruent,correct,591
sub-15,509,low_activation,congruent,correct,659
sub-15,510,low_activation,incongruent,correct,697
sub-15,511,low_activation,congruent,correct,643
sub-15,512,low_activation,congruent,correct,653
sub-15,513,low_activation,congruent,correct,733
sub-15,514,low_activation,congruent,correct,546
sub-15,515,low_activation,incongruent,correct,683
sub-15,516,low_activation,incongruent,correct,661
sub-15,517,low_activation,incongruent,correct,591
sub-15,518,low_activation,incongruent,correct,503
sub-15,519,low_activation,incongruent,,NaN
sub-15,520,low_activation,congruent,correct,792
sub-15,521,low_activation,congruent,correct,609
sub-15,522,low_activation,incongruent,correct,563
sub-15,523,low_activation,congruent,correct,595
sub-15,524,low_activation,incongruent,correct,590
sub-15,525,low_activation,incongruent,correct,553
sub-15,526,low_activation,incongruent,correct,615
sub-15,527,low_activation,incongruent,correct,583
sub-15,528,low_activation,congruent,correct,597
sub-15,529,low_activation,congruent,correct,607
sub-15,530,low_activation,congruent,correct,592
sub-15,531,low_activation,incongruent,correct,783
sub-15,532,low_activation,congruent,correct,813
sub-15,533,low_activation,incongruent,correct,609
sub-15,534,low_activation,incongruent,correct,587
sub-15,535,low_activation,incongruent,correct,707
sub-15,536,low_activation,incongruent,correct,677
sub-15,537,low_activation,incongruent,correct,655
sub-15,538,low_activation,incongruent,correct,497
sub-15,539,low_activation,congruent,correct,607
sub-15,540,low_activation,incongruent,correct,571
sub-15,541,low_activation,incongruent,correct,683
sub-15,542,low_activation,incongruent,correct,699
sub-15,543,low_activation,congruent,correct,645
sub-15,544,low_activation,incongruent,correct,581
sub-15,545,low_activation,congruent,correct,541
sub-15,546,low_activation,congruent,correct,613
sub-15,547,low_activation,congruent,correct,603
sub-15,548,low_activation,incongruent,correct,573
sub-15,549,low_activation,congruent,correct,551
sub-15,550,low_activation,congruent,correct,513
sub-15,551,low_activation,congruent,correct,573
sub-15,552,low_activation,congruent,correct,497
sub-15,553,low_activation,incongruent,correct,599
sub-15,554,low_activation,incongruent,correct,600
sub-15,555,low_activation,congruent,correct,559
sub-15,556,low_activation,incongruent,correct,671
sub-15,557,low_activation,incongruent,correct,577
sub-15,558,low_activation,incongruent,correct,609
sub-15,559,low_activation,incongruent,correct,531
sub-15,560,low_activation,incongruent,correct,551
sub-15,561,low_activation,congruent,correct,539
sub-15,562,low_activation,incongruent,correct,563
sub-15,563,low_activation,incongruent,correct,867
sub-15,564,low_activation,congruent,correct,629
sub-15,565,low_activation,congruent,correct,465
sub-15,566,low_activation,congruent,correct,471
sub-15,567,low_activation,incongruent,correct,463
sub-15,568,low_activation,incongruent,correct,463
sub-15,569,low_activation,congruent,correct,511
sub-15,570,low_activation,congruent,correct,587
sub-15,571,low_activation,incongruent,correct,733
sub-15,572,low_activation,incongruent,correct,667
sub-15,573,low_activation,congruent,correct,591
sub-15,574,low_activation,incongruent,correct,543
sub-15,575,low_activation,congruent,correct,487
sub-15,576,low_activation,congruent,correct,511
sub-15,577,low_activation,incongruent,correct,641
sub-15,578,low_activation,congruent,correct,659
sub-15,579,low_activation,congruent,correct,749
sub-15,580,low_activation,congruent,correct,555
sub-15,581,low_activation,congruent,correct,565
sub-15,582,low_activation,congruent,correct,507
sub-15,583,low_activation,incongruent,correct,599
sub-15,584,low_activation,incongruent,correct,501
sub-15,585,low_activation,congruent,correct,545
sub-15,586,low_activation,incongruent,correct,520
sub-15,587,low_activation,congruent,correct,648
sub-15,588,low_activation,congruent,correct,634
sub-15,589,low_activation,congruent,correct,657
sub-15,590,low_activation,congruent,correct,546
sub-15,591,low_activation,incongruent,correct,563
sub-15,592,low_activation,congruent,correct,593
sub-15,593,low_activation,incongruent,correct,569
sub-15,594,low_activation,congruent,correct,599
sub-15,595,low_activation,incongruent,correct,545
sub-15,596,low_activation,incongruent,correct,523
sub-15,597,low_activation,incongruent,correct,561
sub-15,598,low_activation,incongruent,correct,629
sub-15,599,low_activation,congruent,correct,439
sub-15,600,low_activation,incongruent,correct,489
sub-15,601,low_activation,congruent,correct,521
sub-15,602,low_activation,incongruent,correct,535
sub-15,603,low_activation,incongruent,correct,415
sub-15,604,low_activation,incongruent,correct,551
sub-15,605,low_activation,incongruent,correct,625
sub-15,606,low_activation,incongruent,correct,591
sub-15,607,low_activation,incongruent,correct,515
sub-15,608,low_activation,congruent,correct,569
sub-15,609,low_activation,incongruent,correct,537
sub-15,610,low_activation,incongruent,correct,479
sub-15,611,low_activation,incongruent,correct,599
sub-15,612,low_activation,incongruent,correct,609
sub-15,613,low_activation,congruent,correct,776
sub-15,614,low_activation,incongruent,correct,557
sub-15,615,low_activation,congruent,correct,567
sub-15,616,low_activation,congruent,correct,585
sub-15,617,low_activation,congruent,correct,483
sub-15,618,low_activation,congruent,correct,545
sub-15,619,low_activation,incongruent,correct,727
sub-15,620,low_activation,incongruent,correct,489
sub-15,621,low_activation,congruent,correct,555
sub-15,622,low_activation,incongruent,correct,769
sub-15,623,low_activation,incongruent,correct,511
sub-15,624,low_activation,congruent,correct,624
sub-15,625,low_activation,incongruent,correct,577
sub-15,626,low_activation,congruent,correct,533
sub-15,627,low_activation,congruent,correct,485
sub-15,628,low_activation,incongruent,correct,559
sub-15,629,low_activation,congruent,correct,597
sub-15,630,low_activation,congruent,correct,869
sub-15,631,low_activation,incongruent,correct,751
sub-15,632,low_activation,incongruent,correct,493
sub-15,633,low_activation,congruent,correct,567
sub-15,634,low_activation,congruent,correct,623
sub-15,635,low_activation,congruent,incorrect,569
sub-15,636,low_activation,congruent,correct,619
sub-15,637,low_activation,congruent,correct,467
sub-15,638,low_activation,congruent,correct,582
sub-15,639,low_activation,congruent,correct,509
sub-15,640,low_activation,congruent,correct,589
sub-15,641,low_activation,incongruent,correct,559
sub-15,642,low_activation,incongruent,correct,479
sub-15,643,low_activation,incongruent,correct,529
sub-15,644,low_activation,incongruent,correct,661
sub-15,645,low_activation,congruent,correct,539
sub-15,646,low_activation,congruent,correct,601
sub-15,647,low_activation,incongruent,correct,713
sub-15,648,low_activation,congruent,correct,1115
sub-15,649,low_activation,congruent,correct,629
sub-15,650,low_activation,incongruent,correct,519
sub-15,651,low_activation,incongruent,correct,526
sub-15,652,low_activation,incongruent,correct,549
sub-15,653,low_activation,incongruent,correct,559
sub-15,654,low_activation,incongruent,correct,583
sub-15,655,low_activation,congruent,,NaN
sub-15,656,low_activation,congruent,correct,573
sub-15,657,low_activation,congruent,correct,549
sub-15,658,low_activation,incongruent,correct,491
sub-15,659,low_activation,congruent,correct,579
sub-15,660,low_activation,incongruent,,NaN
sub-15,661,low_activation,congruent,,NaN
sub-15,662,low_activation,congruent,correct,671
sub-15,663,low_activation,incongruent,correct,627
sub-15,664,low_activation,incongruent,correct,691
sub-15,665,low_activation,incongruent,correct,607
sub-15,666,low_activation,congruent,correct,581
sub-15,667,low_activation,incongruent,,NaN
sub-15,668,low_activation,congruent,,NaN
sub-15,669,low_activation,congruent,,NaN
sub-15,670,low_activation,congruent,correct,607
sub-15,671,low_activation,congruent,correct,565
sub-15,672,low_activation,incongruent,correct,673
sub-15,673,low_activation,incongruent,correct,505
sub-15,674,low_activation,incongruent,correct,545
sub-15,675,low_activation,incongruent,correct,621
sub-15,676,low_activation,incongruent,correct,577
sub-15,677,low_activation,congruent,correct,571
sub-15,678,low_activation,congruent,correct,647
sub-15,679,low_activation,incongruent,,NaN
sub-15,680,low_activation,incongruent,correct,575
sub-15,681,low_activation,incongruent,correct,629
sub-15,682,low_activation,congruent,correct,569
sub-15,683,low_activation,incongruent,correct,547
sub-15,684,low_activation,congruent,correct,693
sub-15,685,low_activation,incongruent,correct,615
sub-15,686,low_activation,incongruent,correct,665
sub-15,687,low_activation,congruent,,NaN
sub-15,688,low_activation,congruent,,NaN
sub-15,689,low_activation,congruent,correct,681
sub-15,690,low_activation,congruent,,NaN
sub-15,691,low_activation,congruent,correct,475
sub-15,692,low_activation,congruent,,NaN
sub-15,693,low_activation,incongruent,correct,588
sub-15,694,low_activation,incongruent,correct,563
sub-15,695,low_activation,incongruent,correct,525
sub-15,696,low_activation,incongruent,correct,521
sub-15,697,low_activation,congruent,correct,579
sub-15,698,low_activation,congruent,,NaN
sub-15,699,low_activation,congruent,correct,679
sub-15,700,low_activation,congruent,correct,547
sub-15,701,low_activation,congruent,correct,573
sub-15,702,low_activation,incongruent,correct,591
sub-15,703,low_activation,incongruent,correct,533
sub-15,704,low_activation,incongruent,correct,793
sub-15,705,low_activation,congruent,correct,601
sub-15,706,low_activation,congruent,correct,609
sub-15,707,low_activation,incongruent,correct,601
sub-15,708,low_activation,congruent,correct,555
sub-15,709,low_activation,incongruent,correct,529
sub-15,710,low_activation,incongruent,correct,510
sub-15,711,low_activation,incongruent,correct,539
sub-15,712,low_activation,incongruent,correct,597
sub-15,713,low_activation,congruent,correct,507
sub-15,714,low_activation,congruent,correct,563
sub-15,715,low_activation,congruent,correct,480
sub-15,716,low_activation,congruent,correct,471
sub-15,717,low_activation,congruent,correct,551
sub-15,718,low_activation,congruent,correct,587
sub-15,719,low_activation,incongruent,correct,551
sub-15,720,low_activation,incongruent,correct,527
sub-15,721,low_activation,congruent,correct,534
sub-15,722,low_activation,congruent,correct,709
sub-15,723,low_activation,incongruent,correct,606
sub-15,724,low_activation,incongruent,correct,589
sub-15,725,low_activation,congruent,correct,591
sub-15,726,low_activation,incongruent,correct,563
sub-15,727,low_activation,incongruent,correct,515
sub-15,728,low_activation,congruent,correct,531
sub-15,729,low_activation,incongruent,correct,502
sub-15,730,low_activation,congruent,correct,491
sub-15,731,low_activation,congruent,correct,540
sub-15,732,low_activation,incongruent,correct,641
sub-15,733,low_activation,incongruent,correct,887
sub-15,734,low_activation,incongruent,correct,717
sub-15,735,low_activation,congruent,correct,631
sub-15,736,low_activation,incongruent,correct,683
sub-15,737,low_activation,incongruent,correct,710
sub-15,738,low_activation,incongruent,correct,578
sub-15,739,low_activation,incongruent,correct,483
sub-15,740,low_activation,incongruent,correct,561
sub-15,741,low_activation,incongruent,correct,506
sub-15,742,low_activation,incongruent,correct,481
sub-15,743,low_activation,congruent,correct,533
sub-15,744,low_activation,congruent,correct,541
sub-15,745,low_activation,congruent,correct,567
sub-15,746,low_activation,congruent,correct,505
sub-15,747,low_activation,congruent,correct,503
sub-15,748,low_activation,incongruent,correct,577
sub-15,749,low_activation,incongruent,correct,487
sub-15,750,low_activation,congruent,correct,611
