sub_ID,trial_number,physical_activation,trial_congruency,resp_correctness,reaction_times
sub-02,1,high_activation,congruent,correct,717
sub-02,2,high_activation,incongruent,correct,525
sub-02,3,high_activation,incongruent,correct,545
sub-02,4,high_activation,incongruent,correct,501
sub-02,5,high_activation,congruent,correct,549
sub-02,6,high_activation,congruent,correct,545
sub-02,7,high_activation,congruent,correct,471
sub-02,8,high_activation,congruent,correct,441
sub-02,9,high_activation,incongruent,correct,447
sub-02,10,high_activation,congruent,correct,407
sub-02,11,high_activation,congruent,correct,437
sub-02,12,high_activation,incongruent,correct,471
sub-02,13,high_activation,incongruent,correct,503
sub-02,14,high_activation,incongruent,correct,625
sub-02,15,high_activation,incongruent,correct,495
sub-02,16,high_activation,incongruent,correct,735
sub-02,17,high_activation,congruent,correct,587
sub-02,18,high_activation,congruent,correct,463
sub-02,19,high_activation,incongruent,correct,603
sub-02,20,high_activation,congruent,correct,657
sub-02,21,high_activation,congruent,correct,439
sub-02,22,high_activation,incongruent,correct,517
sub-02,23,high_activation,congruent,correct,633
sub-02,24,high_activation,incongruent,correct,473
sub-02,25,high_activation,incongruent,correct,681
sub-02,26,high_activation,incongruent,correct,447
sub-02,27,high_activation,incongruent,correct,521
sub-02,28,high_activation,congruent,correct,455
sub-02,29,high_activation,congruent,correct,457
sub-02,30,high_activation,incongruent,correct,593
sub-02,31,high_activation,incongruent,correct,569
sub-02,32,high_activation,congruent,correct,741
sub-02,33,high_activation,congruent,correct,615
sub-02,34,high_activation,congruent,correct,665
sub-02,35,high_activation,incongruent,correct,697
sub-02,36,high_activation,congruent,correct,663
sub-02,37,high_activation,congruent,correct,755
sub-02,38,high_activation,congruent,correct,425
sub-02,39,high_activation,congruent,correct,645
sub-02,40,high_activation,incongruent,correct,617
sub-02,41,high_activation,congruent,,NaN
sub-02,42,high_activation,congruent,correct,647
sub-02,43,high_activation,incongruent,correct,619
sub-02,44,high_activation,incongruent,correct,691
sub-02,45,high_activation,incongruent,,NaN
sub-02,46,high_activation,incongruent,correct,683
sub-02,47,high_activation,incongruent,correct,765
sub-02,48,high_activation,congruent,correct,601
sub-02,49,high_activation,incongruent,correct,769
sub-02,50,high_activation,congruent,correct,599
sub-02,51,high_activation,congruent,correct,617
sub-02,52,high_activation,incongruent,correct,767
sub-02,53,high_activation,congruent,correct,847
sub-02,54,high_activation,incongruent,correct,844
sub-02,55,high_activation,incongruent,correct,563
sub-02,56,high_activation,congruent,correct,713
sub-02,57,high_activation,congruent,correct,519
sub-02,58,high_activation,congruent,correct,531
sub-02,59,high_activation,congruent,correct,573
sub-02,60,high_activation,incongruent,correct,761
sub-02,61,high_activation,congruent,correct,505
sub-02,62,high_activation,congruent,correct,545
sub-02,63,high_activation,incongruent,correct,647
sub-02,64,high_activation,congruent,correct,599
sub-02,65,high_activation,congruent,correct,741
sub-02,66,high_activation,congruent,correct,573
sub-02,67,high_activation,incongruent,correct,853
sub-02,68,high_activation,incongruent,correct,545
sub-02,69,high_activation,incongruent,correct,891
sub-02,70,high_activation,congruent,correct,711
sub-02,71,high_activation,incongruent,correct,709
sub-02,72,high_activation,incongruent,correct,667
sub-02,73,high_activation,incongruent,correct,781
sub-02,74,high_activation,congruent,correct,637
sub-02,75,high_activation,incongruent,correct,813
sub-02,76,high_activation,incongruent,correct,613
sub-02,77,high_activation,incongruent,correct,661
sub-02,78,high_activation,incongruent,correct,1123
sub-02,79,high_activation,incongruent,correct,617
sub-02,80,high_activation,incongruent,correct,623
sub-02,81,high_activation,incongruent,correct,537
sub-02,82,high_activation,incongruent,correct,599
sub-02,83,high_activation,incongruent,correct,607
sub-02,84,high_activation,congruent,correct,621
sub-02,85,high_activation,congruent,correct,559
sub-02,86,high_activation,congruent,correct,637
sub-02,87,high_activation,congruent,correct,563
sub-02,88,high_activation,congruent,correct,463
sub-02,89,high_activation,congruent,correct,441
sub-02,90,high_activation,incongruent,correct,791
sub-02,91,high_activation,congruent,correct,725
sub-02,92,high_activation,incongruent,correct,811
sub-02,93,high_activation,congruent,correct,525
sub-02,94,high_activation,congruent,correct,563
sub-02,95,high_activation,incongruent,correct,757
sub-02,96,high_activation,incongruent,correct,659
sub-02,97,high_activation,congruent,correct,651
sub-02,98,high_activation,incongruent,correct,843
sub-02,99,high_activation,incongruent,correct,1027
sub-02,100,high_activation,congruent,correct,649
sub-02,101,high_activation,congruent,correct,507
sub-02,102,high_activation,congruent,correct,579
sub-02,103,high_activation,congruent,correct,643
sub-02,104,high_activation,congruent,correct,537
sub-02,105,high_activation,congruent,correct,779
sub-02,106,high_activation,incongruent,correct,665
sub-02,107,high_activation,incongruent,correct,519
sub-02,108,high_activation,incongruent,correct,623
sub-02,109,high_activation,incongruent,correct,613
sub-02,110,high_activation,incongruent,correct,503
sub-02,111,high_activation,congruent,correct,571
sub-02,112,high_activation,incongruent,correct,539
sub-02,113,high_activation,incongruent,correct,421
sub-02,114,high_activation,incongruent,correct,405
sub-02,115,high_activation,incongruent,correct,419
sub-02,116,high_activation,congruent,correct,517
sub-02,117,high_activation,congruent,correct,447
sub-02,118,high_activation,incongruent,correct,719
sub-02,119,high_activation,incongruent,correct,535
sub-02,120,high_activation,incongruent,correct,549
sub-02,121,high_activation,congruent,correct,593
sub-02,122,high_activation,incongruent,correct,633
sub-02,123,high_activation,incongruent,correct,793
sub-02,124,high_activation,congruent,correct,499
sub-02,125,high_activation,congruent,correct,593
sub-02,126,high_activation,incongruent,correct,415
sub-02,127,high_activation,congruent,correct,535
sub-02,128,high_activation,incongruent,correct,575
sub-02,129,high_activation,incongruent,correct,491
sub-02,130,high_activation,congruent,correct,517
sub-02,131,high_activation,congruent,correct,521
sub-02,132,high_activation,congruent,correct,567
sub-02,133,high_activation,incongruent,correct,631
sub-02,134,high_activation,congruent,correct,593
sub-02,135,high_activation,congruent,correct,559
sub-02,136,high_activation,congruent,correct,645
sub-02,137,high_activation,congruent,correct,595
sub-02,138,high_activation,congruent,correct,543
sub-02,139,high_activation,congruent,correct,579
sub-02,140,high_activation,congruent,correct,411
sub-02,141,high_activation,congruent,correct,813
sub-02,142,high_activation,congruent,correct,517
sub-02,143,high_activation,congruent,correct,1165
sub-02,144,high_activation,incongruent,correct,611
sub-02,145,high_activation,congruent,correct,731
sub-02,146,high_activation,congruent,correct,547
sub-02,147,high_activation,congruent,correct,517
sub-02,148,high_activation,congruent,correct,525
sub-02,149,high_activation,incongruent,correct,745
sub-02,150,high_activation,incongruent,correct,703
sub-02,151,high_activation,congruent,correct,597
sub-02,152,high_activation,congruent,correct,617
sub-02,153,high_activation,incongruent,correct,867
sub-02,154,high_activation,congruent,correct,501
sub-02,155,high_activation,incongruent,correct,547
sub-02,156,high_activation,incongruent,correct,515
sub-02,157,high_activation,incongruent,correct,637
sub-02,158,high_activation,congruent,correct,725
sub-02,159,high_activation,incongruent,correct,1039
sub-02,160,high_activation,incongruent,correct,723
sub-02,161,high_activation,incongruent,correct,547
sub-02,162,high_activation,incongruent,correct,457
sub-02,163,high_activation,incongruent,correct,451
sub-02,164,high_activation,incongruent,correct,575
sub-02,165,high_activation,incongruent,correct,411
sub-02,166,high_activation,congruent,correct,567
sub-02,167,high_activation,congruent,correct,527
sub-02,168,high_activation,congruent,correct,943
sub-02,169,high_activation,congruent,correct,457
sub-02,170,high_activation,incongruent,correct,643
sub-02,171,high_activation,incongruent,correct,463
sub-02,172,high_activation,incongruent,correct,613
sub-02,173,high_activation,incongruent,correct,803
sub-02,174,high_activation,incongruent,correct,1551
sub-02,175,high_activation,incongruent,correct,1195
sub-02,176,high_activation,incongruent,correct,483
sub-02,177,high_activation,congruent,correct,447
sub-02,178,high_activation,incongruent,correct,505
sub-02,179,high_activation,congruent,correct,553
sub-02,180,high_activation,congruent,correct,727
sub-02,181,high_activation,congruent,correct,611
sub-02,182,high_activation,congruent,correct,635
sub-02,183,high_activation,congruent,correct,605
sub-02,184,high_activation,incongruent,correct,1153
sub-02,185,high_activation,incongruent,correct,651
sub-02,186,high_activation,incongruent,correct,623
sub-02,187,high_activation,incongruent,correct,587
sub-02,188,high_activation,congruent,correct,435
sub-02,189,high_activation,incongruent,correct,1151
sub-02,190,high_activation,incongruent,correct,765
sub-02,191,high_activation,incongruent,correct,535
sub-02,192,high_activation,incongruent,correct,659
sub-02,193,high_activation,incongruent,correct,535
sub-02,194,high_activation,congruent,correct,785
sub-02,195,high_activation,congruent,correct,627
sub-02,196,high_activation,incongruent,correct,637
sub-02,197,high_activation,incongruent,correct,531
sub-02,198,high_activation,incongruent,correct,531
sub-02,199,high_activation,incongruent,correct,601
sub-02,200,high_activation,incongruent,correct,695
sub-02,201,high_activation,congruent,correct,599
sub-02,202,high_activation,congruent,correct,515
sub-02,203,high_activation,incongruent,correct,1169
sub-02,204,high_activation,incongruent,correct,453
sub-02,205,high_activation,congruent,correct,455
sub-02,206,high_activation,incongruent,correct,447
sub-02,207,high_activation,congruent,correct,1813
sub-02,208,high_activation,incongruent,correct,1035
sub-02,209,high_activation,congruent,correct,413
sub-02,210,high_activation,incongruent,correct,613
sub-02,211,high_activation,congruent,correct,539
sub-02,212,high_activation,congruent,correct,533
sub-02,213,high_activation,congruent,correct,733
sub-02,214,high_activation,congruent,correct,677
sub-02,215,high_activation,incongruent,correct,677
sub-02,216,high_activation,congruent,correct,501
sub-02,217,high_activation,incongruent,correct,679
sub-02,218,high_activation,congruent,correct,589
sub-02,219,high_activation,incongruent,correct,665
sub-02,220,high_activation,incongruent,correct,553
sub-02,221,high_activation,incongruent,correct,883
sub-02,222,high_activation,congruent,correct,555
sub-02,223,high_activation,incongruent,correct,713
sub-02,224,high_activation,incongruent,correct,1027
sub-02,225,high_activation,congruent,correct,597
sub-02,226,high_activation,congruent,correct,1063
sub-02,227,high_activation,incongruent,correct,587
sub-02,228,high_activation,congruent,correct,861
sub-02,229,high_activation,congruent,correct,1051
sub-02,230,high_activation,congruent,correct,485
sub-02,231,high_activation,incongruent,correct,517
sub-02,232,high_activation,incongruent,correct,519
sub-02,233,high_activation,congruent,correct,587
sub-02,234,high_activation,congruent,correct,1153
sub-02,235,high_activation,congruent,correct,633
sub-02,236,high_activation,incongruent,,NaN
sub-02,237,high_activation,congruent,correct,699
sub-02,238,high_activation,incongruent,correct,459
sub-02,239,high_activation,congruent,correct,539
sub-02,240,high_activation,congruent,correct,523
sub-02,241,high_activation,incongruent,correct,571
sub-02,242,high_activation,congruent,correct,505
sub-02,243,high_activation,incongruent,correct,691
sub-02,244,high_activation,congruent,correct,653
sub-02,245,high_activation,congruent,correct,555
sub-02,246,high_activation,congruent,correct,475
sub-02,247,high_activation,incongruent,correct,727
sub-02,248,high_activation,incongruent,correct,625
sub-02,249,high_activation,congruent,correct,611
sub-02,250,high_activation,incongruent,correct,687
sub-02,251,high_activation,incongruent,correct,695
sub-02,252,high_activation,congruent,correct,909
sub-02,253,high_activation,congruent,correct,433
sub-02,254,high_activation,incongruent,correct,895
sub-02,255,high_activation,incongruent,correct,1091
sub-02,256,high_activation,incongruent,correct,445
sub-02,257,high_activation,incongruent,correct,625
sub-02,258,high_activation,incongruent,correct,501
sub-02,259,high_activation,incongruent,correct,547
sub-02,260,high_activation,congruent,correct,487
sub-02,261,high_activation,incongruent,correct,521
sub-02,262,high_activation,congruent,correct,521
sub-02,263,high_activation,incongruent,correct,749
sub-02,264,high_activation,congruent,correct,419
sub-02,265,high_activation,congruent,correct,477
sub-02,266,high_activation,incongruent,correct,479
sub-02,267,high_activation,congruent,correct,711
sub-02,268,high_activation,congruent,correct,579
sub-02,269,high_activation,incongruent,correct,1041
sub-02,270,high_activation,congruent,correct,579
sub-02,271,high_activation,congruent,correct,475
sub-02,272,high_activation,incongruent,correct,521
sub-02,273,high_activation,congruent,correct,475
sub-02,274,high_activation,congruent,correct,421
sub-02,275,high_activation,congruent,correct,501
sub-02,276,high_activation,incongruent,correct,1023
sub-02,277,high_activation,congruent,correct,575
sub-02,278,high_activation,incongruent,correct,615
sub-02,279,high_activation,congruent,correct,529
sub-02,280,high_activation,incongruent,correct,949
sub-02,281,high_activation,congruent,correct,989
sub-02,282,high_activation,incongruent,correct,743
sub-02,283,high_activation,incongruent,correct,711
sub-02,284,high_activation,congruent,correct,501
sub-02,285,high_activation,incongruent,correct,617
sub-02,286,high_activation,incongruent,correct,555
sub-02,287,high_activation,incongruent,correct,625
sub-02,288,high_activation,congruent,correct,505
sub-02,289,high_activation,incongruent,correct,1261
sub-02,290,high_activation,incongruent,correct,551
sub-02,291,high_activation,congruent,correct,439
sub-02,292,high_activation,incongruent,correct,621
sub-02,293,high_activation,incongruent,correct,1217
sub-02,294,high_activation,congruent,correct,821
sub-02,295,high_activation,congruent,correct,651
sub-02,296,high_activation,incongruent,correct,525
sub-02,297,high_activation,incongruent,correct,811
sub-02,298,high_activation,congruent,correct,1393
sub-02,299,high_activation,congruent,,NaN
sub-02,300,high_activation,incongruent,correct,713
sub-02,301,high_activation,incongruent,correct,609
sub-02,302,high_activation,incongruent,correct,617
sub-02,303,high_activation,congruent,correct,661
sub-02,304,high_activation,incongruent,correct,493
sub-02,305,high_activation,incongruent,correct,487
sub-02,306,high_activation,congruent,correct,585
sub-02,307,high_activation,congruent,correct,493
sub-02,308,high_activation,incongruent,correct,1221
sub-02,309,high_activation,congruent,correct,393
sub-02,310,high_activation,congruent,correct,801
sub-02,311,high_activation,incongruent,correct,629
sub-02,312,high_activation,congruent,correct,903
sub-02,313,high_activation,congruent,correct,521
sub-02,314,high_activation,congruent,correct,719
sub-02,315,high_activation,congruent,correct,545
sub-02,316,high_activation,congruent,correct,569
sub-02,317,high_activation,congruent,correct,505
sub-02,318,high_activation,congruent,correct,435
sub-02,319,high_activation,incongruent,correct,423
sub-02,320,high_activation,incongruent,correct,688
sub-02,321,high_activation,incongruent,correct,679
sub-02,322,high_activation,incongruent,correct,669
sub-02,323,high_activation,incongruent,correct,735
sub-02,324,high_activation,incongruent,correct,689
sub-02,325,high_activation,congruent,correct,565
sub-02,326,high_activation,congruent,correct,537
sub-02,327,high_activation,congruent,correct,641
sub-02,328,high_activation,congruent,correct,545
sub-02,329,high_activation,congruent,correct,465
sub-02,330,high_activation,congruent,correct,549
sub-02,331,high_activation,incongruent,correct,497
sub-02,332,high_activation,congruent,correct,555
sub-02,333,high_activation,incongruent,correct,663
sub-02,334,high_activation,incongruent,correct,1559
sub-02,335,high_activation,congruent,correct,559
sub-02,336,high_activation,congruent,correct,687
sub-02,337,high_activation,congruent,correct,641
sub-02,338,high_activation,congruent,correct,487
sub-02,339,high_activation,congruent,correct,771
sub-02,340,high_activation,incongruent,correct,525
sub-02,341,high_activation,incongruent,correct,549
sub-02,342,high_activation,incongruent,correct,1209
sub-02,343,high_activation,congruent,correct,473
sub-02,344,high_activation,incongruent,correct,1373
sub-02,345,high_activation,congruent,correct,995
sub-02,346,high_activation,congruent,correct,645
sub-02,347,high_activation,congruent,correct,491
sub-02,348,high_activation,congruent,correct,651
sub-02,349,high_activation,incongruent,correct,533
sub-02,350,high_activation,incongruent,correct,679
sub-02,351,high_activation,incongruent,correct,513
sub-02,352,high_activation,congruent,correct,375
sub-02,353,high_activation,congruent,correct,557
sub-02,354,high_activation,incongruent,correct,541
sub-02,355,high_activation,incongruent,correct,1037
sub-02,356,high_activation,incongruent,correct,915
sub-02,357,high_activation,incongruent,correct,555
sub-02,358,high_activation,incongruent,correct,637
sub-02,359,high_activation,congruent,correct,653
sub-02,360,high_activation,incongruent,correct,899
sub-02,361,high_activation,congruent,correct,571
sub-02,362,high_activation,incongruent,correct,593
sub-02,363,high_activation,incongruent,correct,729
sub-02,364,high_activation,congruent,correct,683
sub-02,365,high_activation,incongruent,correct,637
sub-02,366,high_activation,congruent,correct,541
sub-02,367,high_activation,congruent,correct,733
sub-02,368,high_activation,congruent,correct,657
sub-02,369,high_activation,congruent,correct,451
sub-02,370,high_activation,incongruent,correct,493
sub-02,371,high_activation,incongruent,correct,535
sub-02,372,high_activation,incongruent,correct,495
sub-02,373,high_activation,incongruent,correct,833
sub-02,374,high_activation,incongruent,,NaN
sub-02,375,high_activation,incongruent,correct,637
sub-02,376,high_activation,congruent,correct,505
sub-02,377,high_activation,congruent,correct,537
sub-02,378,high_activation,congruent,correct,615
sub-02,379,high_activation,congruent,correct,463
sub-02,380,high_activation,incongruent,,NaN
sub-02,381,high_activation,incongruent,correct,557
sub-02,382,high_activation,incongruent,correct,779
sub-02,383,high_activation,congruent,correct,539
sub-02,384,high_activation,congruent,correct,1219
sub-02,385,high_activation,congruent,correct,535
sub-02,386,high_activation,incongruent,correct,907
sub-02,387,high_activation,congruent,correct,461
sub-02,388,high_activation,incongruent,correct,759
sub-02,389,high_activation,incongruent,correct,629
sub-02,390,high_activation,incongruent,correct,613
sub-02,391,high_activation,congruent,correct,555
sub-02,392,high_activation,congruent,correct,651
sub-02,393,high_activation,congruent,correct,605
sub-02,394,high_activation,congruent,correct,651
sub-02,395,high_activation,congruent,correct,439
sub-02,396,high_activation,congruent,correct,555
sub-02,397,high_activation,congruent,correct,507
sub-02,398,high_activation,incongruent,correct,621
sub-02,399,high_activation,incongruent,correct,651
sub-02,400,high_activation,incongruent,correct,549
sub-02,401,high_activation,incongruent,correct,473
sub-02,402,high_activation,incongruent,correct,571
sub-02,403,high_activation,incongruent,correct,487
sub-02,404,high_activation,incongruent,correct,645
sub-02,405,high_activation,incongruent,correct,1209
sub-02,406,high_activation,incongruent,correct,521
sub-02,407,high_activation,incongruent,correct,501
sub-02,408,high_activation,congruent,correct,1255
sub-02,409,high_activation,incongruent,,NaN
sub-02,410,high_activation,incongruent,correct,479
sub-02,411,high_activation,congruent,correct,489
sub-02,412,high_activation,congruent,,NaN
sub-02,413,high_activation,incongruent,correct,767
sub-02,414,high_activation,congruent,correct,669
sub-02,415,high_activation,congruent,correct,587
sub-02,416,high_activation,congruent,correct,463
sub-02,417,high_activation,congruent,correct,479
sub-02,418,high_activation,incongruent,correct,501
sub-02,419,high_activation,incongruent,correct,709
sub-02,420,high_activation,incongruent,correct,635
sub-02,421,high_activation,congruent,correct,467
sub-02,422,high_activation,congruent,correct,635
sub-02,423,high_activation,incongruent,,NaN
sub-02,424,high_activation,incongruent,correct,567
sub-02,425,high_activation,congruent,correct,1403
sub-02,426,high_activation,congruent,correct,577
sub-02,427,high_activation,congruent,correct,673
sub-02,428,high_activation,congruent,,NaN
sub-02,429,high_activation,congruent,,NaN
sub-02,430,high_activation,congruent,correct,1113
sub-02,431,high_activation,incongruent,,NaN
sub-02,432,high_activation,congruent,correct,607
sub-02,433,high_activation,incongruent,correct,1499
sub-02,434,high_activation,congruent,correct,1227
sub-02,435,high_activation,incongruent,correct,633
sub-02,436,high_activation,congruent,correct,603
sub-02,437,high_activation,incongruent,,NaN
sub-02,438,high_activation,incongruent,,NaN
sub-02,439,high_activation,incongruent,correct,1619
sub-02,440,high_activation,incongruent,correct,1127
sub-02,441,high_activation,congruent,,NaN
sub-02,442,high_activation,incongruent,correct,637
sub-02,443,high_activation,congruent,correct,671
sub-02,444,high_activation,congruent,correct,503
sub-02,445,high_activation,congruent,correct,849
sub-02,446,high_activation,incongruent,correct,865
sub-02,447,high_activation,incongruent,correct,595
sub-02,448,high_activation,incongruent,correct,411
sub-02,449,high_activation,congruent,correct,1385
sub-02,450,high_activation,incongruent,correct,507
sub-02,451,high_activation,congruent,correct,617
sub-02,452,high_activation,congruent,correct,491
sub-02,453,high_activation,congruent,correct,373
sub-02,454,high_activation,incongruent,,NaN
sub-02,455,high_activation,incongruent,correct,761
sub-02,456,high_activation,congruent,correct,587
sub-02,457,high_activation,congruent,,NaN
sub-02,458,high_activation,congruent,correct,451
sub-02,459,high_activation,incongruent,correct,631
sub-02,460,high_activation,congruent,correct,623
sub-02,461,high_activation,incongruent,correct,683
sub-02,462,high_activation,incongruent,correct,623
sub-02,463,high_activation,incongruent,correct,593
sub-02,464,high_activation,congruent,correct,863
sub-02,465,high_activation,congruent,correct,471
sub-02,466,high_activation,congruent,correct,487
sub-02,467,high_activation,incongruent,correct,1021
sub-02,468,high_activation,congruent,correct,539
sub-02,469,high_activation,congruent,,NaN
sub-02,470,high_activation,incongruent,correct,605
sub-02,471,high_activation,congruent,correct,1815
sub-02,472,high_activation,incongruent,correct,1389
sub-02,473,high_activation,incongruent,correct,1173
sub-02,474,high_activation,congruent,correct,687
sub-02,475,high_activation,congruent,correct,525
sub-02,476,high_activation,incongruent,correct,789
sub-02,477,high_activation,incongruent,,NaN
sub-02,478,high_activation,incongruent,correct,1061
sub-02,479,high_activation,congruent,correct,879
sub-02,480,high_activation,incongruent,correct,689
sub-02,481,high_activation,congruent,correct,721
sub-02,482,high_activation,incongruent,correct,639
sub-02,483,high_activation,congruent,correct,633
sub-02,484,high_activation,congruent,correct,475
sub-02,485,high_activation,incongruent,correct,541
sub-02,486,high_activation,incongruent,correct,493
sub-02,487,high_activation,incongruent,,NaN
sub-02,488,high_activation,incongruent,correct,557
sub-02,489,high_activation,congruent,correct,589
sub-02,490,high_activation,congruent,correct,1159
sub-02,491,high_activation,congruent,,NaN
sub-02,492,high_activation,incongruent,correct,529
sub-02,493,high_activation,incongruent,correct,625
sub-02,494,high_activation,incongruent,correct,637
sub-02,495,high_activation,incongruent,correct,535
sub-02,496,high_activation,congruent,correct,435
sub-02,497,high_activation,incongruent,correct,631
sub-02,498,high_activation,congruent,correct,451
sub-02,499,high_activation,incongruent,correct,449
sub-02,500,high_activation,incongruent,correct,609
sub-02,501,high_activation,incongruent,correct,655
sub-02,502,high_activation,incongruent,correct,547
sub-02,503,high_activation,congruent,correct,593
sub-02,504,high_activation,incongruent,correct,637
sub-02,505,high_activation,congruent,correct,469
sub-02,506,high_activation,congruent,correct,1851
sub-02,507,high_activation,incongruent,correct,641
sub-02,508,high_activation,congruent,correct,529
sub-02,509,high_activation,incongruent,correct,563
sub-02,510,high_activation,congruent,correct,821
sub-02,511,high_activation,incongruent,correct,493
sub-02,512,high_activation,congruent,correct,593
sub-02,513,high_activation,congruent,correct,721
sub-02,514,high_activation,incongruent,correct,545
sub-02,515,high_activation,incongruent,correct,553
sub-02,516,high_activation,incongruent,,NaN
sub-02,517,high_activation,incongruent,correct,683
sub-02,518,high_activation,incongruent,correct,1095
sub-02,519,high_activation,incongruent,correct,495
sub-02,520,high_activation,congruent,correct,587
sub-02,521,high_activation,congruent,correct,505
sub-02,522,high_activation,incongruent,correct,11
sub-02,523,high_activation,congruent,incorrect,239
sub-02,524,high_activation,incongruent,correct,451
sub-02,525,high_activation,incongruent,correct,645
sub-02,526,high_activation,congruent,correct,577
sub-02,527,high_activation,congruent,correct,481
sub-02,528,high_activation,incongruent,correct,541
sub-02,529,high_activation,incongruent,correct,485
sub-02,530,high_activation,incongruent,correct,547
sub-02,531,high_activation,congruent,correct,499
sub-02,532,high_activation,congruent,correct,567
sub-02,533,high_activation,incongruent,correct,473
sub-02,534,high_activation,congruent,correct,541
sub-02,535,high_activation,congruent,correct,589
sub-02,536,high_activation,incongruent,correct,525
sub-02,537,high_activation,incongruent,correct,507
sub-02,538,high_activation,congruent,correct,615
sub-02,539,high_activation,incongruent,correct,553
sub-02,540,high_activation,incongruent,correct,555
sub-02,541,high_activation,congruent,correct,501
sub-02,542,high_activation,congruent,correct,597
sub-02,543,high_activation,congruent,correct,623
sub-02,544,high_activation,incongruent,correct,575
sub-02,545,high_activation,congruent,correct,537
sub-02,546,high_activation,congruent,correct,499
sub-02,547,high_activation,incongruent,correct,543
sub-02,548,high_activation,congruent,correct,615
sub-02,549,high_activation,congruent,correct,489
sub-02,550,high_activation,incongruent,correct,573
sub-02,551,high_activation,congruent,correct,409
sub-02,552,high_activation,incongruent,correct,611
sub-02,553,high_activation,congruent,correct,539
sub-02,554,high_activation,congruent,correct,857
sub-02,555,high_activation,congruent,correct,851
sub-02,556,high_activation,incongruent,correct,625
sub-02,557,high_activation,incongruent,correct,519
sub-02,558,high_activation,congruent,correct,605
sub-02,559,high_activation,congruent,correct,481
sub-02,560,high_activation,congruent,correct,511
sub-02,561,high_activation,incongruent,correct,587
sub-02,562,high_activation,incongruent,correct,527
sub-02,563,high_activation,congruent,correct,423
sub-02,564,high_activation,incongruent,correct,495
sub-02,565,high_activation,congruent,correct,437
sub-02,566,high_activation,congruent,correct,433
sub-02,567,high_activation,congruent,correct,865
sub-02,568,high_activation,congruent,correct,595
sub-02,569,high_activation,incongruent,,NaN
sub-02,570,high_activation,congruent,correct,1773
sub-02,571,high_activation,incongruent,,NaN
sub-02,572,high_activation,congruent,,NaN
sub-02,573,high_activation,congruent,,NaN
sub-02,574,high_activation,congruent,correct,513
sub-02,575,high_activation,incongruent,correct,557
sub-02,576,high_activation,incongruent,,NaN
sub-02,577,high_activation,incongruent,correct,477
sub-02,578,high_activation,congruent,correct,513
sub-02,579,high_activation,congruent,,NaN
sub-02,580,high_activation,congruent,correct,629
sub-02,581,high_activation,incongruent,correct,623
sub-02,582,high_activation,incongruent,correct,505
sub-02,583,high_activation,congruent,correct,497
sub-02,584,high_activation,congruent,correct,1235
sub-02,585,high_activation,congruent,correct,635
sub-02,586,high_activation,incongruent,correct,689
sub-02,587,high_activation,congruent,correct,623
sub-02,588,high_activation,incongruent,correct,553
sub-02,589,high_activation,incongruent,correct,563
sub-02,590,high_activation,congruent,correct,533
sub-02,591,high_activation,congruent,correct,589
sub-02,592,high_activation,incongruent,correct,591
sub-02,593,high_activation,congruent,correct,553
sub-02,594,high_activation,congruent,correct,507
sub-02,595,high_activation,incongruent,,NaN
sub-02,596,high_activation,congruent,,NaN
sub-02,597,high_activation,incongruent,correct,1299
sub-02,598,high_activation,congruent,,NaN
sub-02,599,high_activation,congruent,,NaN
sub-02,600,high_activation,congruent,,NaN
sub-02,601,high_activation,congruent,,NaN
sub-02,602,high_activation,congruent,,NaN
sub-02,603,high_activation,congruent,,NaN
sub-02,604,high_activation,congruent,,NaN
sub-02,605,high_activation,incongruent,,NaN
sub-02,606,high_activation,incongruent,correct,873
sub-02,607,high_activation,incongruent,,NaN
sub-02,608,high_activation,incongruent,,NaN
sub-02,609,high_activation,congruent,correct,759
sub-02,610,high_activation,incongruent,,NaN
sub-02,611,high_activation,congruent,correct,1221
sub-02,612,high_activation,incongruent,correct,1725
sub-02,613,high_activation,incongruent,correct,1337
sub-02,614,high_activation,congruent,correct,597
sub-02,615,high_activation,incongruent,correct,1031
sub-02,616,high_activation,congruent,correct,457
sub-02,617,high_activation,congruent,correct,537
sub-02,618,high_activation,incongruent,correct,709
sub-02,619,high_activation,congruent,,NaN
sub-02,620,high_activation,congruent,,NaN
sub-02,621,high_activation,incongruent,correct,645
sub-02,622,high_activation,congruent,correct,571
sub-02,623,high_activation,incongruent,,NaN
sub-02,624,high_activation,congruent,,NaN
sub-02,625,high_activation,incongruent,,NaN
sub-02,626,high_activation,incongruent,correct,787
sub-02,627,high_activation,congruent,correct,623
sub-02,628,high_activation,incongruent,correct,493
sub-02,629,high_activation,congruent,correct,753
sub-02,630,high_activation,incongruent,correct,479
sub-02,631,high_activation,incongruent,correct,1439
sub-02,632,high_activation,congruent,correct,687
sub-02,633,high_activation,incongruent,correct,705
sub-02,634,high_activation,incongruent,,NaN
sub-02,635,high_activation,congruent,correct,683
sub-02,636,high_activation,congruent,correct,1007
sub-02,637,high_activation,incongruent,,NaN
sub-02,638,high_activation,incongruent,,NaN
sub-02,639,high_activation,congruent,correct,513
sub-02,640,high_activation,incongruent,correct,1213
sub-02,641,high_activation,congruent,correct,803
sub-02,642,high_activation,congruent,correct,539
sub-02,643,high_activation,incongruent,correct,571
sub-02,644,high_activation,congruent,correct,569
sub-02,645,high_activation,incongruent,correct,601
sub-02,646,high_activation,congruent,,NaN
sub-02,647,high_activation,incongruent,,NaN
sub-02,648,high_activation,congruent,correct,883
sub-02,649,high_activation,incongruent,correct,603
sub-02,650,high_activation,congruent,correct,887
sub-02,651,high_activation,incongruent,correct,1243
sub-02,652,high_activation,congruent,,NaN
sub-02,653,high_activation,incongruent,,NaN
sub-02,654,high_activation,incongruent,correct,879
sub-02,655,high_activation,incongruent,correct,855
sub-02,656,high_activation,incongruent,,NaN
sub-02,657,high_activation,congruent,,NaN
sub-02,658,high_activation,congruent,,NaN
sub-02,659,high_activation,incongruent,correct,1119
sub-02,660,high_activation,incongruent,correct,497
sub-02,661,high_activation,congruent,correct,465
sub-02,662,high_activation,congruent,correct,557
sub-02,663,high_activation,congruent,correct,571
sub-02,664,high_activation,congruent,correct,555
sub-02,665,high_activation,incongruent,correct,733
sub-02,666,high_activation,congruent,correct,1427
sub-02,667,high_activation,incongruent,correct,627
sub-02,668,high_activation,congruent,correct,631
sub-02,669,high_activation,incongruent,incorrect,549
sub-02,670,high_activation,congruent,correct,871
sub-02,671,high_activation,congruent,correct,519
sub-02,672,high_activation,congruent,correct,647
sub-02,673,high_activation,incongruent,correct,487
sub-02,674,high_activation,congruent,correct,1135
sub-02,675,high_activation,incongruent,incorrect,499
sub-02,676,high_activation,congruent,,NaN
sub-02,677,high_activation,congruent,correct,469
sub-02,678,high_activation,congruent,correct,509
sub-02,679,high_activation,incongruent,correct,495
sub-02,680,high_activation,incongruent,correct,501
sub-02,681,high_activation,congruent,correct,457
sub-02,682,high_activation,incongruent,correct,441
sub-02,683,high_activation,incongruent,correct,527
sub-02,684,high_activation,incongruent,correct,587
sub-02,685,high_activation,congruent,correct,599
sub-02,686,high_activation,incongruent,correct,525
sub-02,687,high_activation,congruent,correct,469
sub-02,688,high_activation,congruent,correct,533
sub-02,689,high_activation,congruent,correct,417
sub-02,690,high_activation,congruent,correct,641
sub-02,691,high_activation,incongruent,correct,565
sub-02,692,high_activation,incongruent,correct,501
sub-02,693,high_activation,congruent,correct,613
sub-02,694,high_activation,incongruent,correct,601
sub-02,695,high_activation,congruent,correct,1093
sub-02,696,high_activation,incongruent,correct,531
sub-02,697,high_activation,incongruent,correct,521
sub-02,698,high_activation,congruent,correct,469
sub-02,699,high_activation,congruent,correct,383
sub-02,700,high_activation,incongruent,correct,523
sub-02,701,high_activation,incongruent,correct,545
sub-02,702,high_activation,incongruent,correct,563
sub-02,703,high_activation,congruent,correct,667
sub-02,704,high_activation,congruent,correct,503
sub-02,705,high_activation,incongruent,correct,725
sub-02,706,high_activation,congruent,correct,761
sub-02,707,high_activation,congruent,correct,739
sub-02,708,high_activation,incongruent,correct,585
sub-02,709,high_activation,congruent,correct,743
sub-02,710,high_activation,incongruent,correct,615
sub-02,711,high_activation,incongruent,correct,723
sub-02,712,high_activation,congruent,correct,851
sub-02,713,high_activation,incongruent,correct,579
sub-02,714,high_activation,incongruent,correct,667
sub-02,715,high_activation,congruent,correct,569
sub-02,1,low_activation,congruent,correct,640
sub-02,2,low_activation,incongruent,correct,590
sub-02,3,low_activation,congruent,correct,662
sub-02,4,low_activation,incongruent,correct,644
sub-02,5,low_activation,incongruent,correct,506
sub-02,6,low_activation,incongruent,correct,616
sub-02,7,low_activation,incongruent,correct,642
sub-02,8,low_activation,congruent,correct,598
sub-02,9,low_activation,incongruent,,NaN
sub-02,10,low_activation,congruent,correct,506
sub-02,11,low_activation,incongruent,,NaN
sub-02,12,low_activation,congruent,correct,530
sub-02,13,low_activation,incongruent,correct,522
sub-02,14,low_activation,incongruent,correct,536
sub-02,15,low_activation,congruent,,NaN
sub-02,16,low_activation,incongruent,correct,636
sub-02,17,low_activation,incongruent,correct,682
sub-02,18,low_activation,incongruent,correct,678
sub-02,19,low_activation,incongruent,,NaN
sub-02,20,low_activation,incongruent,,NaN
sub-02,21,low_activation,incongruent,correct,916
sub-02,22,low_activation,incongruent,,NaN
sub-02,23,low_activation,congruent,correct,580
sub-02,24,low_activation,congruent,correct,618
sub-02,25,low_activation,incongruent,correct,632
sub-02,26,low_activation,congruent,correct,534
sub-02,27,low_activation,incongruent,correct,574
sub-02,28,low_activation,incongruent,correct,836
sub-02,29,low_activation,incongruent,correct,934
sub-02,30,low_activation,congruent,correct,608
sub-02,31,low_activation,incongruent,correct,1008
sub-02,32,low_activation,congruent,correct,588
sub-02,33,low_activation,congruent,correct,734
sub-02,34,low_activation,incongruent,correct,734
sub-02,35,low_activation,incongruent,correct,688
sub-02,36,low_activation,congruent,correct,588
sub-02,37,low_activation,incongruent,correct,718
sub-02,38,low_activation,congruent,correct,494
sub-02,39,low_activation,incongruent,correct,480
sub-02,40,low_activation,incongruent,correct,972
sub-02,41,low_activation,incongruent,correct,614
sub-02,42,low_activation,congruent,correct,726
sub-02,43,low_activation,incongruent,correct,732
sub-02,44,low_activation,congruent,correct,580
sub-02,45,low_activation,incongruent,correct,846
sub-02,46,low_activation,congruent,correct,934
sub-02,47,low_activation,congruent,correct,1418
sub-02,48,low_activation,congruent,correct,549
sub-02,49,low_activation,congruent,correct,656
sub-02,50,low_activation,incongruent,correct,684
sub-02,51,low_activation,congruent,correct,646
sub-02,52,low_activation,incongruent,correct,608
sub-02,53,low_activation,congruent,correct,672
sub-02,54,low_activation,incongruent,correct,800
sub-02,55,low_activation,congruent,correct,808
sub-02,56,low_activation,congruent,correct,690
sub-02,57,low_activation,incongruent,correct,606
sub-02,58,low_activation,congruent,correct,1236
sub-02,59,low_activation,congruent,correct,472
sub-02,60,low_activation,incongruent,correct,1574
sub-02,61,low_activation,incongruent,correct,654
sub-02,62,low_activation,congruent,correct,610
sub-02,63,low_activation,incongruent,correct,658
sub-02,64,low_activation,congruent,correct,618
sub-02,65,low_activation,incongruent,correct,668
sub-02,66,low_activation,congruent,correct,644
sub-02,67,low_activation,congruent,correct,466
sub-02,68,low_activation,incongruent,correct,1034
sub-02,69,low_activation,congruent,correct,608
sub-02,70,low_activation,incongruent,correct,724
sub-02,71,low_activation,incongruent,correct,738
sub-02,72,low_activation,incongruent,correct,846
sub-02,73,low_activation,congruent,correct,602
sub-02,74,low_activation,congruent,correct,710
sub-02,75,low_activation,incongruent,,NaN
sub-02,76,low_activation,congruent,correct,708
sub-02,77,low_activation,congruent,correct,636
sub-02,78,low_activation,congruent,correct,718
sub-02,79,low_activation,congruent,correct,473
sub-02,80,low_activation,incongruent,correct,646
sub-02,81,low_activation,congruent,correct,850
sub-02,82,low_activation,congruent,correct,462
sub-02,83,low_activation,congruent,correct,702
sub-02,84,low_activation,congruent,correct,822
sub-02,85,low_activation,congruent,,NaN
sub-02,86,low_activation,incongruent,correct,690
sub-02,87,low_activation,congruent,correct,734
sub-02,88,low_activation,incongruent,correct,674
sub-02,89,low_activation,incongruent,correct,542
sub-02,90,low_activation,incongruent,correct,662
sub-02,91,low_activation,incongruent,correct,772
sub-02,92,low_activation,incongruent,correct,682
sub-02,93,low_activation,incongruent,correct,668
sub-02,94,low_activation,congruent,correct,584
sub-02,95,low_activation,incongruent,correct,738
sub-02,96,low_activation,incongruent,correct,788
sub-02,97,low_activation,incongruent,correct,544
sub-02,98,low_activation,incongruent,,NaN
sub-02,99,low_activation,congruent,correct,671
sub-02,100,low_activation,incongruent,correct,610
sub-02,101,low_activation,incongruent,correct,718
sub-02,102,low_activation,incongruent,correct,661
sub-02,103,low_activation,congruent,correct,606
sub-02,104,low_activation,incongruent,correct,714
sub-02,105,low_activation,congruent,correct,610
sub-02,106,low_activation,incongruent,correct,486
sub-02,107,low_activation,incongruent,correct,560
sub-02,108,low_activation,congruent,correct,824
sub-02,109,low_activation,incongruent,correct,656
sub-02,110,low_activation,incongruent,correct,568
sub-02,111,low_activation,congruent,correct,826
sub-02,112,low_activation,congruent,correct,622
sub-02,113,low_activation,incongruent,correct,836
sub-02,114,low_activation,incongruent,correct,572
sub-02,115,low_activation,congruent,correct,698
sub-02,116,low_activation,incongruent,correct,646
sub-02,117,low_activation,congruent,correct,574
sub-02,118,low_activation,incongruent,correct,754
sub-02,119,low_activation,incongruent,correct,761
sub-02,120,low_activation,incongruent,correct,766
sub-02,121,low_activation,congruent,correct,482
sub-02,122,low_activation,incongruent,correct,528
sub-02,123,low_activation,incongruent,correct,601
sub-02,124,low_activation,incongruent,correct,850
sub-02,125,low_activation,incongruent,correct,686
sub-02,126,low_activation,incongruent,correct,532
sub-02,127,low_activation,congruent,correct,502
sub-02,128,low_activation,congruent,correct,316
sub-02,129,low_activation,congruent,correct,334
sub-02,130,low_activation,congruent,correct,378
sub-02,131,low_activation,congruent,correct,248
sub-02,132,low_activation,incongruent,incorrect,358
sub-02,133,low_activation,incongruent,correct,548
sub-02,134,low_activation,congruent,correct,440
sub-02,135,low_activation,congruent,correct,438
sub-02,136,low_activation,incongruent,correct,540
sub-02,137,low_activation,incongruent,correct,544
sub-02,138,low_activation,congruent,correct,680
sub-02,139,low_activation,incongruent,correct,650
sub-02,140,low_activation,incongruent,correct,592
sub-02,141,low_activation,incongruent,correct,610
sub-02,142,low_activation,incongruent,correct,534
sub-02,143,low_activation,congruent,correct,622
sub-02,144,low_activation,congruent,correct,670
sub-02,145,low_activation,incongruent,correct,558
sub-02,146,low_activation,incongruent,correct,690
sub-02,147,low_activation,congruent,correct,732
sub-02,148,low_activation,congruent,correct,590
sub-02,149,low_activation,congruent,correct,586
sub-02,150,low_activation,congruent,correct,592
sub-02,151,low_activation,incongruent,correct,634
sub-02,152,low_activation,congruent,correct,556
sub-02,153,low_activation,incongruent,correct,586
sub-02,154,low_activation,congruent,correct,702
sub-02,155,low_activation,congruent,correct,578
sub-02,156,low_activation,congruent,correct,704
sub-02,157,low_activation,incongruent,correct,666
sub-02,158,low_activation,incongruent,correct,664
sub-02,159,low_activation,incongruent,correct,620
sub-02,160,low_activation,congruent,correct,512
sub-02,161,low_activation,incongruent,correct,640
sub-02,162,low_activation,congruent,correct,612
sub-02,163,low_activation,congruent,correct,564
sub-02,164,low_activation,congruent,correct,794
sub-02,165,low_activation,incongruent,correct,696
sub-02,166,low_activation,congruent,correct,482
sub-02,167,low_activation,congruent,correct,550
sub-02,168,low_activation,incongruent,correct,502
sub-02,169,low_activation,incongruent,correct,642
sub-02,170,low_activation,incongruent,correct,712
sub-02,171,low_activation,incongruent,correct,646
sub-02,172,low_activation,congruent,correct,632
sub-02,173,low_activation,incongruent,correct,692
sub-02,174,low_activation,incongruent,correct,676
sub-02,175,low_activation,incongruent,correct,582
sub-02,176,low_activation,congruent,correct,562
sub-02,177,low_activation,incongruent,correct,512
sub-02,178,low_activation,incongruent,correct,528
sub-02,179,low_activation,incongruent,correct,912
sub-02,180,low_activation,congruent,correct,408
sub-02,181,low_activation,incongruent,correct,512
sub-02,182,low_activation,congruent,correct,690
sub-02,183,low_activation,incongruent,correct,848
sub-02,184,low_activation,congruent,correct,438
sub-02,185,low_activation,congruent,correct,432
sub-02,186,low_activation,congruent,correct,660
sub-02,187,low_activation,incongruent,correct,638
sub-02,188,low_activation,congruent,correct,672
sub-02,189,low_activation,incongruent,correct,576
sub-02,190,low_activation,congruent,correct,544
sub-02,191,low_activation,congruent,correct,462
sub-02,192,low_activation,congruent,correct,549
sub-02,193,low_activation,incongruent,correct,674
sub-02,194,low_activation,congruent,correct,608
sub-02,195,low_activation,incongruent,correct,550
sub-02,196,low_activation,congruent,correct,558
sub-02,197,low_activation,congruent,correct,581
sub-02,198,low_activation,incongruent,correct,514
sub-02,199,low_activation,incongruent,,NaN
sub-02,200,low_activation,congruent,correct,588
sub-02,201,low_activation,incongruent,correct,860
sub-02,202,low_activation,incongruent,correct,838
sub-02,203,low_activation,incongruent,correct,590
sub-02,204,low_activation,congruent,correct,484
sub-02,205,low_activation,incongruent,correct,670
sub-02,206,low_activation,incongruent,correct,510
sub-02,207,low_activation,incongruent,correct,620
sub-02,208,low_activation,incongruent,correct,558
sub-02,209,low_activation,incongruent,correct,706
sub-02,210,low_activation,congruent,correct,584
sub-02,211,low_activation,congruent,correct,622
sub-02,212,low_activation,congruent,correct,540
sub-02,213,low_activation,congruent,correct,460
sub-02,214,low_activation,congruent,correct,464
sub-02,215,low_activation,congruent,correct,572
sub-02,216,low_activation,incongruent,correct,818
sub-02,217,low_activation,congruent,correct,648
sub-02,218,low_activation,congruent,correct,640
sub-02,219,low_activation,incongruent,correct,656
sub-02,220,low_activation,congruent,correct,680
sub-02,221,low_activation,incongruent,correct,650
sub-02,222,low_activation,congruent,correct,622
sub-02,223,low_activation,incongruent,correct,590
sub-02,224,low_activation,incongruent,correct,500
sub-02,225,low_activation,congruent,correct,606
sub-02,226,low_activation,congruent,correct,518
sub-02,227,low_activation,congruent,correct,486
sub-02,228,low_activation,congruent,correct,462
sub-02,229,low_activation,incongruent,correct,558
sub-02,230,low_activation,incongruent,correct,490
sub-02,231,low_activation,incongruent,correct,676
sub-02,232,low_activation,congruent,correct,756
sub-02,233,low_activation,incongruent,correct,486
sub-02,234,low_activation,congruent,correct,666
sub-02,235,low_activation,incongruent,correct,602
sub-02,236,low_activation,congruent,correct,446
sub-02,237,low_activation,congruent,correct,586
sub-02,238,low_activation,congruent,correct,808
sub-02,239,low_activation,congruent,correct,424
sub-02,240,low_activation,incongruent,correct,508
sub-02,241,low_activation,incongruent,correct,550
sub-02,242,low_activation,congruent,correct,470
sub-02,243,low_activation,incongruent,incorrect,400
sub-02,244,low_activation,congruent,correct,668
sub-02,245,low_activation,incongruent,correct,712
sub-02,246,low_activation,incongruent,correct,608
sub-02,247,low_activation,congruent,correct,934
sub-02,248,low_activation,congruent,correct,760
sub-02,249,low_activation,congruent,correct,712
sub-02,250,low_activation,congruent,correct,784
sub-02,251,low_activation,incongruent,correct,640
sub-02,252,low_activation,incongruent,correct,672
sub-02,253,low_activation,incongruent,correct,592
sub-02,254,low_activation,congruent,correct,602
sub-02,255,low_activation,congruent,correct,585
sub-02,256,low_activation,incongruent,correct,720
sub-02,257,low_activation,incongruent,correct,598
sub-02,258,low_activation,incongruent,correct,516
sub-02,259,low_activation,incongruent,correct,610
sub-02,260,low_activation,congruent,correct,710
sub-02,261,low_activation,incongruent,correct,710
sub-02,262,low_activation,congruent,correct,650
sub-02,263,low_activation,congruent,correct,709
sub-02,264,low_activation,congruent,correct,666
sub-02,265,low_activation,congruent,correct,565
sub-02,266,low_activation,congruent,correct,668
sub-02,267,low_activation,congruent,correct,710
sub-02,268,low_activation,congruent,correct,620
sub-02,269,low_activation,congruent,correct,594
sub-02,270,low_activation,congruent,correct,644
sub-02,271,low_activation,congruent,correct,690
sub-02,272,low_activation,congruent,correct,532
sub-02,273,low_activation,incongruent,correct,618
sub-02,274,low_activation,congruent,correct,558
sub-02,275,low_activation,congruent,correct,556
sub-02,276,low_activation,incongruent,correct,740
sub-02,277,low_activation,congruent,correct,470
sub-02,278,low_activation,congruent,correct,646
sub-02,279,low_activation,incongruent,correct,572
sub-02,280,low_activation,congruent,correct,710
sub-02,281,low_activation,incongruent,correct,718
sub-02,282,low_activation,congruent,correct,656
sub-02,283,low_activation,congruent,correct,686
sub-02,284,low_activation,incongruent,correct,912
sub-02,285,low_activation,congruent,correct,612
sub-02,286,low_activation,congruent,correct,790
sub-02,287,low_activation,incongruent,correct,529
sub-02,288,low_activation,incongruent,correct,596
sub-02,289,low_activation,incongruent,correct,545
sub-02,290,low_activation,congruent,correct,512
sub-02,291,low_activation,incongruent,correct,474
sub-02,292,low_activation,congruent,correct,448
sub-02,293,low_activation,congruent,correct,468
sub-02,294,low_activation,congruent,correct,468
sub-02,295,low_activation,congruent,correct,654
sub-02,296,low_activation,congruent,correct,568
sub-02,297,low_activation,congruent,correct,560
sub-02,298,low_activation,congruent,correct,560
sub-02,299,low_activation,incongruent,correct,536
sub-02,300,low_activation,incongruent,correct,572
sub-02,301,low_activation,incongruent,correct,502
sub-02,302,low_activation,incongruent,correct,766
sub-02,303,low_activation,incongruent,correct,580
sub-02,304,low_activation,incongruent,correct,516
sub-02,305,low_activation,congruent,correct,442
sub-02,306,low_activation,congruent,correct,710
sub-02,307,low_activation,congruent,correct,460
sub-02,308,low_activation,congruent,correct,514
sub-02,309,low_activation,congruent,correct,514
sub-02,310,low_activation,congruent,correct,516
sub-02,311,low_activation,congruent,correct,562
sub-02,312,low_activation,incongruent,correct,652
sub-02,313,low_activation,incongruent,correct,518
sub-02,314,low_activation,incongruent,correct,600
sub-02,315,low_activation,congruent,correct,633
sub-02,316,low_activation,incongruent,correct,542
sub-02,317,low_activation,congruent,correct,474
sub-02,318,low_activation,congruent,correct,568
sub-02,319,low_activation,congruent,correct,458
sub-02,320,low_activation,congruent,correct,554
sub-02,321,low_activation,congruent,correct,460
sub-02,322,low_activation,incongruent,correct,608
sub-02,323,low_activation,incongruent,correct,568
sub-02,324,low_activation,incongruent,correct,510
sub-02,325,low_activation,congruent,correct,606
sub-02,326,low_activation,congruent,correct,504
sub-02,327,low_activation,incongruent,correct,588
sub-02,328,low_activation,congruent,correct,512
sub-02,329,low_activation,congruent,correct,562
sub-02,330,low_activation,congruent,correct,680
sub-02,331,low_activation,incongruent,correct,508
sub-02,332,low_activation,congruent,correct,556
sub-02,333,low_activation,congruent,correct,465
sub-02,334,low_activation,incongruent,correct,608
sub-02,335,low_activation,congruent,correct,542
sub-02,336,low_activation,incongruent,correct,470
sub-02,337,low_activation,congruent,correct,536
sub-02,338,low_activation,incongruent,correct,574
sub-02,339,low_activation,congruent,correct,570
sub-02,340,low_activation,incongruent,correct,726
sub-02,341,low_activation,congruent,,NaN
sub-02,342,low_activation,congruent,correct,600
sub-02,343,low_activation,congruent,correct,434
sub-02,344,low_activation,incongruent,correct,734
sub-02,345,low_activation,congruent,correct,620
sub-02,346,low_activation,incongruent,correct,676
sub-02,347,low_activation,incongruent,correct,564
sub-02,348,low_activation,incongruent,correct,550
sub-02,349,low_activation,congruent,correct,598
sub-02,350,low_activation,incongruent,correct,550
sub-02,351,low_activation,congruent,correct,544
sub-02,352,low_activation,congruent,correct,610
sub-02,353,low_activation,congruent,correct,816
sub-02,354,low_activation,incongruent,correct,740
sub-02,355,low_activation,incongruent,correct,1072
sub-02,356,low_activation,incongruent,correct,630
sub-02,357,low_activation,incongruent,,NaN
sub-02,358,low_activation,congruent,correct,616
sub-02,359,low_activation,congruent,correct,530
sub-02,360,low_activation,congruent,correct,544
sub-02,361,low_activation,congruent,correct,652
sub-02,362,low_activation,congruent,correct,528
sub-02,363,low_activation,incongruent,correct,624
sub-02,364,low_activation,incongruent,correct,634
sub-02,365,low_activation,incongruent,correct,824
sub-02,366,low_activation,congruent,correct,782
sub-02,367,low_activation,congruent,correct,642
sub-02,368,low_activation,incongruent,correct,562
sub-02,369,low_activation,incongruent,correct,618
sub-02,370,low_activation,congruent,correct,634
sub-02,371,low_activation,congruent,correct,544
sub-02,372,low_activation,incongruent,correct,656
sub-02,373,low_activation,congruent,correct,564
sub-02,374,low_activation,congruent,correct,598
sub-02,375,low_activation,incongruent,correct,500
sub-02,376,low_activation,incongruent,correct,612
sub-02,377,low_activation,congruent,correct,720
sub-02,378,low_activation,incongruent,correct,620
sub-02,379,low_activation,incongruent,correct,622
sub-02,380,low_activation,congruent,correct,654
sub-02,381,low_activation,congruent,correct,556
sub-02,382,low_activation,incongruent,correct,798
sub-02,383,low_activation,incongruent,correct,574
sub-02,384,low_activation,incongruent,correct,740
sub-02,385,low_activation,congruent,correct,686
sub-02,386,low_activation,incongruent,correct,620
sub-02,387,low_activation,congruent,correct,546
sub-02,388,low_activation,congruent,correct,638
sub-02,389,low_activation,incongruent,correct,686
sub-02,390,low_activation,incongruent,correct,660
sub-02,391,low_activation,congruent,correct,620
sub-02,392,low_activation,congruent,correct,514
sub-02,393,low_activation,incongruent,correct,656
sub-02,394,low_activation,incongruent,correct,572
sub-02,395,low_activation,congruent,correct,472
sub-02,396,low_activation,congruent,correct,624
sub-02,397,low_activation,congruent,correct,652
sub-02,398,low_activation,incongruent,correct,662
sub-02,399,low_activation,congruent,correct,652
sub-02,400,low_activation,incongruent,,NaN
sub-02,401,low_activation,congruent,correct,1023
sub-02,402,low_activation,congruent,correct,542
sub-02,403,low_activation,incongruent,correct,736
sub-02,404,low_activation,incongruent,correct,562
sub-02,405,low_activation,congruent,correct,640
sub-02,406,low_activation,congruent,correct,516
sub-02,407,low_activation,incongruent,correct,562
sub-02,408,low_activation,incongruent,correct,570
sub-02,409,low_activation,incongruent,correct,536
sub-02,410,low_activation,incongruent,correct,778
sub-02,411,low_activation,congruent,correct,702
sub-02,412,low_activation,congruent,correct,560
sub-02,413,low_activation,incongruent,correct,546
sub-02,414,low_activation,incongruent,correct,594
sub-02,415,low_activation,congruent,correct,536
sub-02,416,low_activation,incongruent,,NaN
sub-02,417,low_activation,incongruent,,NaN
sub-02,418,low_activation,incongruent,correct,761
sub-02,419,low_activation,congruent,correct,666
sub-02,420,low_activation,incongruent,,NaN
sub-02,421,low_activation,congruent,correct,818
sub-02,422,low_activation,congruent,,NaN
sub-02,423,low_activation,incongruent,correct,688
sub-02,424,low_activation,incongruent,correct,508
sub-02,425,low_activation,congruent,correct,636
sub-02,426,low_activation,incongruent,correct,678
sub-02,427,low_activation,congruent,correct,596
sub-02,428,low_activation,incongruent,correct,756
sub-02,429,low_activation,congruent,correct,708
sub-02,430,low_activation,congruent,correct,920
sub-02,431,low_activation,incongruent,correct,752
sub-02,432,low_activation,congruent,correct,590
sub-02,433,low_activation,incongruent,correct,522
sub-02,434,low_activation,congruent,correct,566
sub-02,435,low_activation,incongruent,correct,564
sub-02,436,low_activation,incongruent,correct,470
sub-02,437,low_activation,incongruent,correct,510
sub-02,438,low_activation,congruent,correct,590
sub-02,439,low_activation,congruent,correct,582
sub-02,440,low_activation,congruent,correct,527
sub-02,441,low_activation,incongruent,correct,478
sub-02,442,low_activation,congruent,correct,678
sub-02,443,low_activation,incongruent,correct,558
sub-02,444,low_activation,congruent,correct,470
sub-02,445,low_activation,congruent,correct,644
sub-02,446,low_activation,incongruent,correct,412
sub-02,447,low_activation,congruent,correct,436
sub-02,448,low_activation,congruent,correct,401
sub-02,449,low_activation,incongruent,correct,494
sub-02,450,low_activation,congruent,correct,700
sub-02,451,low_activation,congruent,correct,412
sub-02,452,low_activation,incongruent,correct,447
sub-02,453,low_activation,congruent,correct,425
sub-02,454,low_activation,congruent,correct,520
sub-02,455,low_activation,congruent,correct,556
sub-02,456,low_activation,incongruent,correct,592
sub-02,457,low_activation,congruent,correct,508
sub-02,458,low_activation,congruent,correct,470
sub-02,459,low_activation,congruent,correct,441
sub-02,460,low_activation,congruent,correct,522
sub-02,461,low_activation,incongruent,correct,656
sub-02,462,low_activation,incongruent,correct,594
sub-02,463,low_activation,incongruent,correct,618
sub-02,464,low_activation,incongruent,correct,661
sub-02,465,low_activation,congruent,correct,460
sub-02,466,low_activation,incongruent,correct,608
sub-02,467,low_activation,congruent,correct,674
sub-02,468,low_activation,incongruent,correct,592
sub-02,469,low_activation,congruent,correct,438
sub-02,470,low_activation,incongruent,correct,748
sub-02,471,low_activation,incongruent,correct,806
sub-02,472,low_activation,congruent,correct,496
sub-02,473,low_activation,congruent,correct,568
sub-02,474,low_activation,incongruent,correct,596
sub-02,475,low_activation,congruent,correct,520
sub-02,476,low_activation,congruent,correct,670
sub-02,477,low_activation,incongruent,correct,808
sub-02,478,low_activation,congruent,,NaN
sub-02,479,low_activation,incongruent,correct,629
sub-02,480,low_activation,congruent,correct,526
sub-02,481,low_activation,congruent,correct,544
sub-02,482,low_activation,congruent,correct,568
sub-02,483,low_activation,congruent,correct,558
sub-02,484,low_activation,incongruent,correct,674
sub-02,485,low_activation,incongruent,correct,544
sub-02,486,low_activation,congruent,correct,646
sub-02,487,low_activation,congruent,correct,696
sub-02,488,low_activation,congruent,correct,550
sub-02,489,low_activation,congruent,correct,568
sub-02,490,low_activation,congruent,correct,585
sub-02,491,low_activation,incongruent,,NaN
sub-02,492,low_activation,incongruent,correct,1036
sub-02,493,low_activation,incongruent,correct,792
sub-02,494,low_activation,congruent,correct,538
sub-02,495,low_activation,congruent,,NaN
sub-02,496,low_activation,incongruent,correct,550
sub-02,497,low_activation,congruent,correct,624
sub-02,498,low_activation,incongruent,correct,558
sub-02,499,low_activation,congruent,correct,546
sub-02,500,low_activation,incongruent,correct,604
sub-02,501,low_activation,congruent,correct,748
sub-02,502,low_activation,congruent,correct,682
sub-02,503,low_activation,incongruent,correct,754
sub-02,504,low_activation,congruent,correct,376
sub-02,505,low_activation,incongruent,correct,635
sub-02,506,low_activation,congruent,correct,762
sub-02,507,low_activation,incongruent,correct,792
sub-02,508,low_activation,congruent,correct,542
sub-02,509,low_activation,congruent,correct,648
sub-02,510,low_activation,incongruent,correct,758
sub-02,511,low_activation,congruent,,NaN
sub-02,512,low_activation,congruent,correct,650
sub-02,513,low_activation,incongruent,correct,934
sub-02,514,low_activation,incongruent,correct,626
sub-02,515,low_activation,incongruent,correct,722
sub-02,516,low_activation,incongruent,correct,644
sub-02,517,low_activation,incongruent,correct,708
sub-02,518,low_activation,incongruent,correct,644
sub-02,519,low_activation,congruent,correct,624
sub-02,520,low_activation,incongruent,correct,636
sub-02,521,low_activation,congruent,correct,568
sub-02,522,low_activation,incongruent,correct,560
sub-02,523,low_activation,congruent,correct,642
sub-02,524,low_activation,congruent,correct,580
sub-02,525,low_activation,congruent,correct,626
sub-02,526,low_activation,incongruent,correct,712
sub-02,527,low_activation,incongruent,correct,600
sub-02,528,low_activation,congruent,correct,500
sub-02,529,low_activation,incongruent,correct,515
sub-02,530,low_activation,incongruent,correct,596
sub-02,531,low_activation,congruent,correct,552
sub-02,532,low_activation,congruent,correct,552
sub-02,533,low_activation,incongruent,correct,585
sub-02,534,low_activation,incongruent,correct,598
sub-02,535,low_activation,incongruent,correct,570
sub-02,536,low_activation,incongruent,correct,778
sub-02,537,low_activation,congruent,,NaN
sub-02,538,low_activation,congruent,correct,550
sub-02,539,low_activation,incongruent,,NaN
sub-02,540,low_activation,congruent,correct,536
sub-02,541,low_activation,congruent,correct,602
sub-02,542,low_activation,incongruent,correct,553
sub-02,543,low_activation,congruent,correct,540
sub-02,544,low_activation,congruent,correct,604
sub-02,545,low_activation,incongruent,correct,656
sub-02,546,low_activation,incongruent,correct,704
sub-02,547,low_activation,incongruent,correct,578
sub-02,548,low_activation,incongruent,correct,556
sub-02,549,low_activation,incongruent,correct,646
sub-02,550,low_activation,incongruent,correct,654
sub-02,551,low_activation,congruent,correct,516
sub-02,552,low_activation,congruent,correct,770
sub-02,553,low_activation,congruent,correct,596
sub-02,554,low_activation,congruent,correct,565
sub-02,555,low_activation,congruent,correct,496
sub-02,556,low_activation,incongruent,correct,652
sub-02,557,low_activation,congruent,correct,554
sub-02,558,low_activation,incongruent,correct,512
sub-02,559,low_activation,congruent,correct,540
sub-02,560,low_activation,incongruent,correct,1020
sub-02,561,low_activation,congruent,correct,652
sub-02,562,low_activation,congruent,correct,440
sub-02,563,low_activation,incongruent,correct,582
sub-02,564,low_activation,incongruent,correct,588
sub-02,565,low_activation,incongruent,correct,668
sub-02,566,low_activation,congruent,correct,560
sub-02,567,low_activation,incongruent,correct,698
sub-02,568,low_activation,incongruent,correct,637
sub-02,569,low_activation,congruent,correct,586
sub-02,570,low_activation,congruent,correct,650
sub-02,571,low_activation,congruent,correct,586
sub-02,572,low_activation,congruent,correct,640
sub-02,573,low_activation,congruent,correct,704
sub-02,574,low_activation,congruent,correct,702
sub-02,575,low_activation,incongruent,correct,507
sub-02,576,low_activation,incongruent,correct,552
sub-02,577,low_activation,congruent,correct,562
sub-02,578,low_activation,congruent,correct,552
sub-02,579,low_activation,incongruent,correct,544
sub-02,580,low_activation,incongruent,correct,552
sub-02,581,low_activation,congruent,correct,487
sub-02,582,low_activation,congruent,correct,512
sub-02,583,low_activation,incongruent,correct,1012
sub-02,584,low_activation,congruent,correct,618
sub-02,585,low_activation,incongruent,correct,888
sub-02,586,low_activation,incongruent,correct,586
sub-02,587,low_activation,incongruent,correct,680
sub-02,588,low_activation,incongruent,correct,504
sub-02,589,low_activation,congruent,correct,494
sub-02,590,low_activation,congruent,correct,570
sub-02,591,low_activation,congruent,correct,514
sub-02,592,low_activation,congruent,correct,628
sub-02,593,low_activation,congruent,correct,458
sub-02,594,low_activation,congruent,correct,464
sub-02,595,low_activation,incongruent,correct,486
sub-02,596,low_activation,incongruent,correct,516
sub-02,597,low_activation,congruent,correct,496
sub-02,598,low_activation,incongruent,correct,558
sub-02,599,low_activation,incongruent,correct,590
sub-02,600,low_activation,incongruent,correct,562
sub-02,601,low_activation,congruent,,NaN
sub-02,602,low_activation,incongruent,correct,712
sub-02,603,low_activation,incongruent,correct,560
sub-02,604,low_activation,incongruent,correct,616
sub-02,605,low_activation,incongruent,correct,530
sub-02,606,low_activation,incongruent,correct,610
sub-02,607,low_activation,congruent,correct,710
sub-02,608,low_activation,incongruent,correct,478
sub-02,609,low_activation,congruent,correct,658
sub-02,610,low_activation,congruent,correct,426
sub-02,611,low_activation,congruent,correct,514
sub-02,612,low_activation,congruent,correct,482
sub-02,613,low_activation,incongruent,correct,694
sub-02,614,low_activation,congruent,correct,504
sub-02,615,low_activation,incongruent,correct,700
sub-02,616,low_activation,congruent,correct,548
sub-02,617,low_activation,congruent,correct,417
sub-02,618,low_activation,incongruent,correct,648
sub-02,619,low_activation,congruent,correct,804
sub-02,620,low_activation,congruent,correct,548
sub-02,621,low_activation,congruent,correct,809
sub-02,622,low_activation,congruent,correct,480
sub-02,623,low_activation,incongruent,correct,610
sub-02,624,low_activation,congruent,correct,582
sub-02,625,low_activation,congruent,correct,606
sub-02,626,low_activation,incongruent,correct,702
sub-02,627,low_activation,incongruent,correct,578
sub-02,628,low_activation,incongruent,correct,566
sub-02,629,low_activation,incongruent,correct,750
sub-02,630,low_activation,incongruent,,NaN
sub-02,631,low_activation,incongruent,correct,754
sub-02,632,low_activation,incongruent,correct,812
sub-02,633,low_activation,congruent,correct,635
sub-02,634,low_activation,congruent,correct,574
sub-02,635,low_activation,congruent,correct,570
sub-02,636,low_activation,incongruent,correct,818
sub-02,637,low_activation,incongruent,correct,702
sub-02,638,low_activation,congruent,correct,790
sub-02,639,low_activation,incongruent,correct,512
sub-02,640,low_activation,congruent,correct,756
sub-02,641,low_activation,incongruent,correct,830
sub-02,642,low_activation,incongruent,correct,898
sub-02,643,low_activation,incongruent,correct,600
sub-02,644,low_activation,incongruent,correct,572
sub-02,645,low_activation,incongruent,correct,580
sub-02,646,low_activation,congruent,correct,508
sub-02,647,low_activation,congruent,correct,598
sub-02,648,low_activation,incongruent,correct,494
sub-02,649,low_activation,congruent,correct,588
sub-02,650,low_activation,congruent,correct,694
sub-02,651,low_activation,incongruent,correct,594
sub-02,652,low_activation,congruent,correct,474
sub-02,653,low_activation,congruent,correct,796
sub-02,654,low_activation,incongruent,correct,994
sub-02,655,low_activation,incongruent,correct,418
sub-02,656,low_activation,congruent,correct,552
sub-02,657,low_activation,incongruent,correct,652
sub-02,658,low_activation,incongruent,correct,722
sub-02,659,low_activation,incongruent,correct,478
sub-02,660,low_activation,incongruent,correct,440
sub-02,661,low_activation,incongruent,correct,518
sub-02,662,low_activation,congruent,correct,620
sub-02,663,low_activation,incongruent,incorrect,468
sub-02,664,low_activation,incongruent,correct,445
sub-02,665,low_activation,incongruent,correct,732
sub-02,666,low_activation,incongruent,correct,568
sub-02,667,low_activation,congruent,correct,738
sub-02,668,low_activation,incongruent,correct,814
sub-02,669,low_activation,congruent,correct,516
sub-02,670,low_activation,congruent,correct,852
sub-02,671,low_activation,incongruent,correct,578
sub-02,672,low_activation,incongruent,correct,490
sub-02,673,low_activation,incongruent,correct,524
sub-02,674,low_activation,incongruent,correct,630
sub-02,675,low_activation,incongruent,correct,692
sub-02,676,low_activation,incongruent,correct,698
sub-02,677,low_activation,congruent,correct,660
sub-02,678,low_activation,congruent,correct,710
sub-02,679,low_activation,congruent,correct,590
sub-02,680,low_activation,congruent,correct,728
sub-02,681,low_activation,incongruent,correct,658
sub-02,682,low_activation,congruent,correct,616
sub-02,683,low_activation,incongruent,correct,839
sub-02,684,low_activation,congruent,correct,706
sub-02,685,low_activation,incongruent,correct,526
sub-02,686,low_activation,incongruent,correct,555
sub-02,687,low_activation,congruent,correct,713
sub-02,688,low_activation,congruent,correct,569
sub-02,689,low_activation,incongruent,correct,656
sub-02,690,low_activation,incongruent,correct,740
sub-02,691,low_activation,incongruent,,NaN
sub-02,692,low_activation,incongruent,correct,704
sub-02,693,low_activation,incongruent,correct,630
sub-02,694,low_activation,congruent,correct,574
sub-02,695,low_activation,congruent,correct,630
sub-02,696,low_activation,incongruent,correct,662
sub-02,697,low_activation,incongruent,correct,656
sub-02,698,low_activation,congruent,correct,570
sub-02,699,low_activation,congruent,correct,548
sub-02,700,low_activation,incongruent,correct,722
sub-02,701,low_activation,congruent,correct,572
sub-02,702,low_activation,congruent,correct,506
sub-02,703,low_activation,congruent,correct,544
sub-02,704,low_activation,congruent,correct,660
sub-02,705,low_activation,incongruent,correct,1038
sub-02,706,low_activation,congruent,correct,648
sub-02,707,low_activation,congruent,correct,990
sub-02,708,low_activation,incongruent,correct,1406
sub-02,709,low_activation,congruent,correct,674
sub-02,710,low_activation,congruent,correct,652
sub-02,711,low_activation,congruent,correct,730
sub-02,712,low_activation,incongruent,correct,582
sub-02,713,low_activation,congruent,correct,548
sub-02,714,low_activation,incongruent,correct,554
sub-02,715,low_activation,congruent,correct,734
sub-02,716,low_activation,incongruent,correct,632
sub-02,717,low_activation,congruent,correct,528
sub-02,718,low_activation,incongruent,correct,480
sub-02,719,low_activation,congruent,correct,594
sub-02,720,low_activation,congruent,correct,625
sub-02,721,low_activation,incongruent,correct,514
sub-02,722,low_activation,incongruent,correct,698
sub-02,723,low_activation,congruent,correct,592
sub-02,724,low_activation,incongruent,correct,658
sub-02,725,low_activation,incongruent,correct,490
sub-02,726,low_activation,incongruent,correct,572
sub-02,727,low_activation,congruent,correct,436
sub-02,728,low_activation,congruent,correct,446
sub-02,729,low_activation,congruent,correct,590
sub-02,730,low_activation,incongruent,correct,484
sub-02,731,low_activation,congruent,correct,608
sub-02,732,low_activation,congruent,correct,612
sub-02,733,low_activation,incongruent,correct,534
sub-02,734,low_activation,congruent,correct,476
sub-02,735,low_activation,incongruent,correct,674
sub-02,736,low_activation,incongruent,correct,586
sub-02,737,low_activation,congruent,correct,502
sub-02,738,low_activation,congruent,correct,900
sub-02,739,low_activation,incongruent,correct,476
sub-02,740,low_activation,incongruent,correct,586
sub-02,741,low_activation,incongruent,correct,568
