sub_ID,trial_number,physical_activation,trial_congruency,resp_correctness,reaction_times
sub-12,1,high_activation,congruent,correct,803
sub-12,2,high_activation,incongruent,correct,819
sub-12,3,high_activation,congruent,correct,565
sub-12,4,high_activation,incongruent,correct,661
sub-12,5,high_activation,incongruent,correct,643
sub-12,6,high_activation,congruent,correct,594
sub-12,7,high_activation,incongruent,correct,545
sub-12,8,high_activation,incongruent,correct,748
sub-12,9,high_activation,incongruent,correct,567
sub-12,10,high_activation,incongruent,correct,557
sub-12,11,high_activation,incongruent,correct,824
sub-12,12,high_activation,incongruent,correct,594
sub-12,13,high_activation,congruent,correct,691
sub-12,14,high_activation,congruent,correct,561
sub-12,15,high_activation,incongruent,correct,567
sub-12,16,high_activation,congruent,correct,503
sub-12,17,high_activation,incongruent,correct,509
sub-12,18,high_activation,congruent,correct,571
sub-12,19,high_activation,incongruent,correct,538
sub-12,20,high_activation,incongruent,correct,505
sub-12,21,high_activation,congruent,correct,439
sub-12,22,high_activation,incongruent,correct,476
sub-12,23,high_activation,incongruent,correct,524
sub-12,24,high_activation,incongruent,correct,431
sub-12,25,high_activation,congruent,correct,410
sub-12,26,high_activation,congruent,correct,519
sub-12,27,high_activation,congruent,correct,501
sub-12,28,high_activation,congruent,correct,545
sub-12,29,high_activation,incongruent,correct,537
sub-12,30,high_activation,incongruent,correct,521
sub-12,31,high_activation,congruent,correct,629
sub-12,32,high_activation,incongruent,correct,567
sub-12,33,high_activation,congruent,correct,519
sub-12,34,high_activation,congruent,correct,379
sub-12,35,high_activation,incongruent,correct,449
sub-12,36,high_activation,incongruent,correct,402
sub-12,37,high_activation,incongruent,correct,345
sub-12,38,high_activation,congruent,correct,367
sub-12,39,high_activation,congruent,correct,402
sub-12,40,high_activation,congruent,correct,459
sub-12,41,high_activation,congruent,correct,361
sub-12,42,high_activation,incongruent,correct,599
sub-12,43,high_activation,congruent,correct,557
sub-12,44,high_activation,congruent,correct,385
sub-12,45,high_activation,congruent,correct,323
sub-12,46,high_activation,congruent,correct,400
sub-12,47,high_activation,incongruent,correct,536
sub-12,48,high_activation,incongruent,correct,481
sub-12,49,high_activation,incongruent,correct,548
sub-12,50,high_activation,congruent,correct,495
sub-12,51,high_activation,congruent,correct,557
sub-12,52,high_activation,incongruent,correct,582
sub-12,53,high_activation,congruent,correct,308
sub-12,54,high_activation,incongruent,correct,572
sub-12,55,high_activation,congruent,correct,357
sub-12,56,high_activation,incongruent,correct,481
sub-12,57,high_activation,incongruent,correct,445
sub-12,58,high_activation,incongruent,correct,368
sub-12,59,high_activation,congruent,correct,506
sub-12,60,high_activation,congruent,correct,429
sub-12,61,high_activation,incongruent,correct,528
sub-12,62,high_activation,congruent,correct,434
sub-12,63,high_activation,incongruent,correct,504
sub-12,64,high_activation,congruent,correct,579
sub-12,65,high_activation,congruent,correct,383
sub-12,66,high_activation,congruent,correct,337
sub-12,67,high_activation,incongruent,correct,390
sub-12,68,high_activation,congruent,correct,277
sub-12,69,high_activation,congruent,correct,296
sub-12,70,high_activation,congruent,correct,350
sub-12,71,high_activation,incongruent,correct,414
sub-12,72,high_activation,congruent,correct,478
sub-12,73,high_activation,incongruent,correct,609
sub-12,74,high_activation,congruent,correct,443
sub-12,75,high_activation,incongruent,correct,526
sub-12,76,high_activation,incongruent,correct,423
sub-12,77,high_activation,congruent,correct,425
sub-12,78,high_activation,congruent,correct,342
sub-12,79,high_activation,congruent,correct,545
sub-12,80,high_activation,incongruent,correct,448
sub-12,81,high_activation,congruent,correct,455
sub-12,82,high_activation,incongruent,correct,449
sub-12,83,high_activation,incongruent,correct,533
sub-12,84,high_activation,incongruent,correct,376
sub-12,85,high_activation,incongruent,correct,491
sub-12,86,high_activation,incongruent,correct,765
sub-12,87,high_activation,congruent,correct,461
sub-12,88,high_activation,congruent,correct,489
sub-12,89,high_activation,incongruent,correct,548
sub-12,90,high_activation,incongruent,correct,385
sub-12,91,high_activation,incongruent,correct,526
sub-12,92,high_activation,congruent,correct,402
sub-12,93,high_activation,congruent,correct,371
sub-12,94,high_activation,congruent,correct,335
sub-12,95,high_activation,incongruent,correct,446
sub-12,96,high_activation,incongruent,correct,420
sub-12,97,high_activation,congruent,correct,416
sub-12,98,high_activation,incongruent,correct,531
sub-12,99,high_activation,congruent,correct,471
sub-12,100,high_activation,congruent,correct,377
sub-12,101,high_activation,congruent,correct,501
sub-12,102,high_activation,incongruent,correct,430
sub-12,103,high_activation,congruent,correct,543
sub-12,104,high_activation,congruent,correct,417
sub-12,105,high_activation,congruent,correct,430
sub-12,106,high_activation,incongruent,correct,487
sub-12,107,high_activation,congruent,correct,542
sub-12,108,high_activation,congruent,correct,487
sub-12,109,high_activation,congruent,correct,420
sub-12,110,high_activation,congruent,correct,562
sub-12,111,high_activation,incongruent,correct,567
sub-12,112,high_activation,incongruent,correct,440
sub-12,113,high_activation,congruent,correct,453
sub-12,114,high_activation,incongruent,correct,447
sub-12,115,high_activation,incongruent,correct,445
sub-12,116,high_activation,congruent,correct,465
sub-12,117,high_activation,incongruent,correct,505
sub-12,118,high_activation,congruent,correct,408
sub-12,119,high_activation,congruent,correct,463
sub-12,120,high_activation,congruent,correct,475
sub-12,121,high_activation,incongruent,correct,475
sub-12,122,high_activation,incongruent,correct,655
sub-12,123,high_activation,congruent,correct,362
sub-12,124,high_activation,incongruent,correct,406
sub-12,125,high_activation,incongruent,correct,389
sub-12,126,high_activation,congruent,correct,411
sub-12,127,high_activation,incongruent,correct,449
sub-12,128,high_activation,incongruent,correct,600
sub-12,129,high_activation,congruent,correct,443
sub-12,130,high_activation,incongruent,correct,429
sub-12,131,high_activation,congruent,correct,667
sub-12,132,high_activation,congruent,correct,390
sub-12,133,high_activation,incongruent,correct,488
sub-12,134,high_activation,congruent,correct,418
sub-12,135,high_activation,congruent,correct,307
sub-12,136,high_activation,incongruent,correct,391
sub-12,137,high_activation,incongruent,correct,528
sub-12,138,high_activation,congruent,correct,398
sub-12,139,high_activation,incongruent,correct,439
sub-12,140,high_activation,incongruent,correct,515
sub-12,141,high_activation,incongruent,correct,404
sub-12,142,high_activation,incongruent,correct,545
sub-12,143,high_activation,incongruent,correct,377
sub-12,144,high_activation,incongruent,correct,491
sub-12,145,high_activation,incongruent,correct,383
sub-12,146,high_activation,congruent,correct,391
sub-12,147,high_activation,congruent,correct,365
sub-12,148,high_activation,incongruent,correct,451
sub-12,149,high_activation,incongruent,correct,464
sub-12,150,high_activation,congruent,correct,350
sub-12,151,high_activation,congruent,correct,369
sub-12,152,high_activation,incongruent,correct,476
sub-12,153,high_activation,incongruent,correct,484
sub-12,154,high_activation,incongruent,correct,441
sub-12,155,high_activation,incongruent,correct,403
sub-12,156,high_activation,congruent,correct,507
sub-12,157,high_activation,congruent,correct,440
sub-12,158,high_activation,congruent,correct,537
sub-12,159,high_activation,incongruent,correct,545
sub-12,160,high_activation,congruent,correct,419
sub-12,161,high_activation,congruent,correct,429
sub-12,162,high_activation,incongruent,correct,439
sub-12,163,high_activation,incongruent,correct,440
sub-12,164,high_activation,incongruent,correct,433
sub-12,165,high_activation,congruent,correct,472
sub-12,166,high_activation,congruent,correct,531
sub-12,167,high_activation,congruent,correct,471
sub-12,168,high_activation,incongruent,correct,473
sub-12,169,high_activation,congruent,correct,379
sub-12,170,high_activation,congruent,correct,520
sub-12,171,high_activation,incongruent,correct,522
sub-12,172,high_activation,incongruent,correct,553
sub-12,173,high_activation,congruent,correct,500
sub-12,174,high_activation,congruent,correct,389
sub-12,175,high_activation,congruent,correct,357
sub-12,176,high_activation,congruent,correct,369
sub-12,177,high_activation,incongruent,correct,527
sub-12,178,high_activation,incongruent,correct,475
sub-12,179,high_activation,congruent,correct,401
sub-12,180,high_activation,congruent,correct,457
sub-12,181,high_activation,congruent,correct,281
sub-12,182,high_activation,congruent,correct,361
sub-12,183,high_activation,congruent,correct,337
sub-12,184,high_activation,incongruent,correct,441
sub-12,185,high_activation,congruent,correct,353
sub-12,186,high_activation,incongruent,correct,496
sub-12,187,high_activation,incongruent,correct,463
sub-12,188,high_activation,congruent,correct,467
sub-12,189,high_activation,incongruent,correct,543
sub-12,190,high_activation,congruent,correct,371
sub-12,191,high_activation,incongruent,correct,578
sub-12,192,high_activation,incongruent,correct,579
sub-12,193,high_activation,congruent,correct,276
sub-12,194,high_activation,congruent,correct,321
sub-12,195,high_activation,congruent,correct,463
sub-12,196,high_activation,incongruent,correct,504
sub-12,197,high_activation,incongruent,correct,527
sub-12,198,high_activation,incongruent,correct,460
sub-12,199,high_activation,congruent,correct,451
sub-12,200,high_activation,incongruent,correct,456
sub-12,201,high_activation,congruent,correct,479
sub-12,202,high_activation,incongruent,correct,519
sub-12,203,high_activation,incongruent,correct,541
sub-12,204,high_activation,incongruent,correct,506
sub-12,205,high_activation,congruent,correct,575
sub-12,206,high_activation,incongruent,correct,385
sub-12,207,high_activation,incongruent,correct,398
sub-12,208,high_activation,incongruent,correct,519
sub-12,209,high_activation,incongruent,correct,423
sub-12,210,high_activation,incongruent,correct,313
sub-12,211,high_activation,congruent,correct,443
sub-12,212,high_activation,congruent,correct,412
sub-12,213,high_activation,congruent,correct,283
sub-12,214,high_activation,congruent,correct,639
sub-12,215,high_activation,incongruent,correct,453
sub-12,216,high_activation,incongruent,correct,359
sub-12,217,high_activation,incongruent,correct,494
sub-12,218,high_activation,congruent,correct,494
sub-12,219,high_activation,incongruent,correct,517
sub-12,220,high_activation,congruent,correct,473
sub-12,221,high_activation,congruent,correct,396
sub-12,222,high_activation,incongruent,correct,538
sub-12,223,high_activation,congruent,correct,388
sub-12,224,high_activation,congruent,correct,469
sub-12,225,high_activation,congruent,correct,435
sub-12,226,high_activation,incongruent,correct,456
sub-12,227,high_activation,congruent,correct,409
sub-12,228,high_activation,incongruent,correct,415
sub-12,229,high_activation,incongruent,correct,398
sub-12,230,high_activation,incongruent,correct,317
sub-12,231,high_activation,incongruent,correct,639
sub-12,232,high_activation,incongruent,correct,481
sub-12,233,high_activation,congruent,correct,435
sub-12,234,high_activation,congruent,correct,583
sub-12,235,high_activation,congruent,correct,587
sub-12,236,high_activation,incongruent,correct,451
sub-12,237,high_activation,congruent,correct,393
sub-12,238,high_activation,congruent,correct,282
sub-12,239,high_activation,incongruent,correct,429
sub-12,240,high_activation,congruent,correct,446
sub-12,241,high_activation,congruent,correct,271
sub-12,242,high_activation,incongruent,correct,489
sub-12,243,high_activation,incongruent,correct,369
sub-12,244,high_activation,congruent,correct,423
sub-12,245,high_activation,incongruent,correct,497
sub-12,246,high_activation,congruent,correct,351
sub-12,247,high_activation,incongruent,correct,581
sub-12,248,high_activation,incongruent,correct,319
sub-12,249,high_activation,incongruent,correct,487
sub-12,250,high_activation,congruent,correct,359
sub-12,251,high_activation,incongruent,correct,462
sub-12,252,high_activation,congruent,correct,490
sub-12,253,high_activation,congruent,correct,323
sub-12,254,high_activation,congruent,correct,603
sub-12,255,high_activation,incongruent,correct,456
sub-12,256,high_activation,incongruent,correct,532
sub-12,257,high_activation,incongruent,correct,351
sub-12,258,high_activation,congruent,correct,328
sub-12,259,high_activation,congruent,correct,347
sub-12,260,high_activation,incongruent,correct,546
sub-12,261,high_activation,incongruent,correct,613
sub-12,262,high_activation,incongruent,correct,719
sub-12,263,high_activation,incongruent,correct,496
sub-12,264,high_activation,congruent,correct,388
sub-12,265,high_activation,incongruent,correct,657
sub-12,266,high_activation,incongruent,correct,492
sub-12,267,high_activation,congruent,correct,403
sub-12,268,high_activation,congruent,correct,351
sub-12,269,high_activation,congruent,correct,307
sub-12,270,high_activation,congruent,correct,315
sub-12,271,high_activation,incongruent,correct,624
sub-12,272,high_activation,congruent,correct,557
sub-12,273,high_activation,congruent,correct,460
sub-12,274,high_activation,incongruent,correct,518
sub-12,275,high_activation,incongruent,correct,441
sub-12,276,high_activation,incongruent,correct,355
sub-12,277,high_activation,incongruent,correct,662
sub-12,278,high_activation,incongruent,correct,617
sub-12,279,high_activation,incongruent,correct,485
sub-12,280,high_activation,incongruent,correct,600
sub-12,281,high_activation,congruent,correct,677
sub-12,282,high_activation,congruent,correct,315
sub-12,283,high_activation,congruent,correct,489
sub-12,284,high_activation,congruent,correct,483
sub-12,285,high_activation,congruent,correct,534
sub-12,286,high_activation,incongruent,correct,577
sub-12,287,high_activation,incongruent,correct,515
sub-12,288,high_activation,congruent,correct,429
sub-12,289,high_activation,congruent,correct,439
sub-12,290,high_activation,congruent,correct,578
sub-12,291,high_activation,congruent,correct,312
sub-12,292,high_activation,congruent,correct,314
sub-12,293,high_activation,congruent,correct,329
sub-12,294,high_activation,congruent,correct,332
sub-12,295,high_activation,incongruent,correct,567
sub-12,296,high_activation,congruent,correct,370
sub-12,297,high_activation,congruent,correct,378
sub-12,298,high_activation,congruent,correct,440
sub-12,299,high_activation,congruent,correct,300
sub-12,300,high_activation,incongruent,correct,342
sub-12,301,high_activation,congruent,correct,335
sub-12,302,high_activation,incongruent,correct,510
sub-12,303,high_activation,incongruent,correct,441
sub-12,304,high_activation,congruent,correct,387
sub-12,305,high_activation,incongruent,correct,589
sub-12,306,high_activation,congruent,correct,520
sub-12,307,high_activation,incongruent,correct,509
sub-12,308,high_activation,incongruent,correct,635
sub-12,309,high_activation,incongruent,correct,549
sub-12,310,high_activation,congruent,correct,637
sub-12,311,high_activation,incongruent,correct,768
sub-12,312,high_activation,incongruent,correct,728
sub-12,313,high_activation,incongruent,correct,433
sub-12,314,high_activation,congruent,correct,385
sub-12,315,high_activation,incongruent,correct,459
sub-12,316,high_activation,incongruent,correct,375
sub-12,317,high_activation,incongruent,correct,460
sub-12,318,high_activation,congruent,correct,462
sub-12,319,high_activation,congruent,correct,422
sub-12,320,high_activation,incongruent,correct,545
sub-12,321,high_activation,incongruent,correct,517
sub-12,322,high_activation,incongruent,correct,603
sub-12,323,high_activation,incongruent,correct,401
sub-12,324,high_activation,incongruent,correct,813
sub-12,325,high_activation,incongruent,correct,537
sub-12,326,high_activation,congruent,correct,531
sub-12,327,high_activation,incongruent,correct,505
sub-12,328,high_activation,congruent,correct,321
sub-12,329,high_activation,congruent,correct,533
sub-12,330,high_activation,congruent,correct,522
sub-12,331,high_activation,incongruent,correct,371
sub-12,332,high_activation,congruent,correct,527
sub-12,333,high_activation,incongruent,correct,621
sub-12,334,high_activation,congruent,correct,468
sub-12,335,high_activation,congruent,correct,469
sub-12,336,high_activation,incongruent,correct,423
sub-12,337,high_activation,congruent,correct,376
sub-12,338,high_activation,incongruent,correct,248
sub-12,339,high_activation,incongruent,correct,545
sub-12,340,high_activation,congruent,correct,388
sub-12,341,high_activation,congruent,correct,395
sub-12,342,high_activation,incongruent,correct,545
sub-12,343,high_activation,congruent,correct,487
sub-12,344,high_activation,congruent,correct,373
sub-12,345,high_activation,incongruent,correct,423
sub-12,346,high_activation,incongruent,correct,437
sub-12,347,high_activation,congruent,correct,523
sub-12,348,high_activation,incongruent,correct,331
sub-12,349,high_activation,incongruent,correct,354
sub-12,350,high_activation,congruent,correct,325
sub-12,351,high_activation,congruent,correct,529
sub-12,352,high_activation,congruent,correct,509
sub-12,353,high_activation,congruent,correct,591
sub-12,354,high_activation,congruent,correct,536
sub-12,355,high_activation,incongruent,correct,658
sub-12,356,high_activation,incongruent,correct,628
sub-12,357,high_activation,congruent,correct,466
sub-12,358,high_activation,congruent,correct,330
sub-12,359,high_activation,incongruent,correct,479
sub-12,360,high_activation,incongruent,correct,385
sub-12,361,high_activation,incongruent,correct,329
sub-12,362,high_activation,congruent,correct,318
sub-12,363,high_activation,congruent,correct,371
sub-12,364,high_activation,incongruent,correct,412
sub-12,365,high_activation,congruent,correct,479
sub-12,366,high_activation,incongruent,correct,415
sub-12,367,high_activation,congruent,correct,354
sub-12,368,high_activation,incongruent,correct,309
sub-12,369,high_activation,incongruent,correct,413
sub-12,370,high_activation,congruent,correct,483
sub-12,371,high_activation,incongruent,correct,455
sub-12,372,high_activation,incongruent,correct,612
sub-12,373,high_activation,incongruent,correct,528
sub-12,374,high_activation,incongruent,correct,358
sub-12,375,high_activation,incongruent,correct,385
sub-12,376,high_activation,incongruent,correct,304
sub-12,377,high_activation,incongruent,correct,365
sub-12,378,high_activation,congruent,correct,317
sub-12,379,high_activation,congruent,correct,287
sub-12,380,high_activation,incongruent,correct,563
sub-12,381,high_activation,incongruent,correct,503
sub-12,382,high_activation,congruent,correct,491
sub-12,383,high_activation,incongruent,correct,464
sub-12,384,high_activation,incongruent,correct,383
sub-12,385,high_activation,incongruent,correct,413
sub-12,386,high_activation,incongruent,correct,489
sub-12,387,high_activation,congruent,correct,397
sub-12,388,high_activation,congruent,correct,383
sub-12,389,high_activation,congruent,correct,369
sub-12,390,high_activation,incongruent,incorrect,439
sub-12,391,high_activation,congruent,correct,407
sub-12,392,high_activation,incongruent,correct,543
sub-12,393,high_activation,congruent,correct,371
sub-12,394,high_activation,congruent,correct,408
sub-12,395,high_activation,congruent,correct,298
sub-12,396,high_activation,incongruent,correct,369
sub-12,397,high_activation,incongruent,correct,295
sub-12,398,high_activation,congruent,correct,553
sub-12,399,high_activation,congruent,correct,373
sub-12,400,high_activation,congruent,correct,489
sub-12,401,high_activation,incongruent,correct,503
sub-12,402,high_activation,congruent,correct,689
sub-12,403,high_activation,incongruent,correct,405
sub-12,404,high_activation,congruent,correct,335
sub-12,405,high_activation,incongruent,correct,295
sub-12,406,high_activation,incongruent,correct,497
sub-12,407,high_activation,congruent,correct,376
sub-12,408,high_activation,congruent,correct,548
sub-12,409,high_activation,incongruent,correct,491
sub-12,410,high_activation,congruent,correct,371
sub-12,411,high_activation,congruent,correct,348
sub-12,412,high_activation,congruent,correct,364
sub-12,413,high_activation,congruent,correct,271
sub-12,414,high_activation,congruent,correct,427
sub-12,415,high_activation,congruent,correct,415
sub-12,416,high_activation,congruent,correct,371
sub-12,417,high_activation,incongruent,correct,511
sub-12,418,high_activation,incongruent,correct,623
sub-12,419,high_activation,congruent,correct,590
sub-12,420,high_activation,incongruent,correct,546
sub-12,421,high_activation,congruent,correct,556
sub-12,422,high_activation,incongruent,correct,520
sub-12,423,high_activation,congruent,correct,525
sub-12,424,high_activation,congruent,correct,423
sub-12,425,high_activation,congruent,correct,574
sub-12,426,high_activation,incongruent,correct,705
sub-12,427,high_activation,incongruent,correct,631
sub-12,428,high_activation,congruent,correct,579
sub-12,429,high_activation,congruent,correct,413
sub-12,430,high_activation,incongruent,correct,396
sub-12,431,high_activation,incongruent,correct,812
sub-12,432,high_activation,incongruent,correct,523
sub-12,433,high_activation,congruent,correct,595
sub-12,434,high_activation,congruent,correct,401
sub-12,435,high_activation,incongruent,correct,712
sub-12,436,high_activation,congruent,correct,310
sub-12,437,high_activation,incongruent,correct,374
sub-12,438,high_activation,incongruent,correct,417
sub-12,439,high_activation,congruent,correct,495
sub-12,440,high_activation,incongruent,correct,519
sub-12,441,high_activation,incongruent,correct,521
sub-12,442,high_activation,congruent,correct,389
sub-12,443,high_activation,congruent,correct,315
sub-12,444,high_activation,congruent,correct,451
sub-12,445,high_activation,congruent,correct,315
sub-12,446,high_activation,congruent,correct,327
sub-12,447,high_activation,incongruent,correct,465
sub-12,448,high_activation,congruent,correct,360
sub-12,449,high_activation,congruent,correct,440
sub-12,450,high_activation,incongruent,correct,395
sub-12,451,high_activation,incongruent,correct,450
sub-12,452,high_activation,congruent,correct,455
sub-12,453,high_activation,incongruent,correct,430
sub-12,454,high_activation,incongruent,correct,463
sub-12,455,high_activation,incongruent,correct,513
sub-12,456,high_activation,incongruent,correct,508
sub-12,457,high_activation,congruent,correct,685
sub-12,458,high_activation,congruent,correct,389
sub-12,459,high_activation,congruent,correct,332
sub-12,460,high_activation,incongruent,correct,554
sub-12,461,high_activation,congruent,correct,591
sub-12,462,high_activation,incongruent,correct,531
sub-12,463,high_activation,incongruent,correct,510
sub-12,464,high_activation,incongruent,correct,467
sub-12,465,high_activation,incongruent,correct,355
sub-12,466,high_activation,congruent,correct,417
sub-12,467,high_activation,incongruent,correct,422
sub-12,468,high_activation,incongruent,correct,476
sub-12,469,high_activation,congruent,correct,541
sub-12,470,high_activation,incongruent,correct,581
sub-12,471,high_activation,incongruent,correct,463
sub-12,472,high_activation,congruent,correct,463
sub-12,473,high_activation,congruent,correct,491
sub-12,474,high_activation,congruent,correct,524
sub-12,475,high_activation,congruent,correct,433
sub-12,476,high_activation,incongruent,correct,431
sub-12,477,high_activation,congruent,correct,315
sub-12,478,high_activation,congruent,correct,398
sub-12,479,high_activation,congruent,correct,426
sub-12,480,high_activation,congruent,correct,334
sub-12,481,high_activation,congruent,correct,489
sub-12,482,high_activation,incongruent,correct,542
sub-12,483,high_activation,congruent,correct,429
sub-12,484,high_activation,incongruent,correct,356
sub-12,485,high_activation,incongruent,correct,443
sub-12,486,high_activation,incongruent,correct,489
sub-12,487,high_activation,incongruent,correct,499
sub-12,488,high_activation,incongruent,correct,507
sub-12,489,high_activation,incongruent,correct,403
sub-12,490,high_activation,congruent,correct,367
sub-12,491,high_activation,congruent,correct,501
sub-12,492,high_activation,incongruent,correct,509
sub-12,493,high_activation,incongruent,correct,472
sub-12,494,high_activation,incongruent,correct,358
sub-12,495,high_activation,incongruent,correct,656
sub-12,496,high_activation,congruent,correct,461
sub-12,497,high_activation,incongruent,correct,405
sub-12,498,high_activation,incongruent,correct,410
sub-12,499,high_activation,congruent,correct,369
sub-12,500,high_activation,congruent,correct,411
sub-12,501,high_activation,congruent,correct,361
sub-12,502,high_activation,incongruent,correct,583
sub-12,503,high_activation,congruent,correct,395
sub-12,504,high_activation,incongruent,correct,544
sub-12,505,high_activation,congruent,correct,485
sub-12,506,high_activation,congruent,correct,345
sub-12,507,high_activation,incongruent,correct,361
sub-12,508,high_activation,incongruent,correct,420
sub-12,509,high_activation,congruent,correct,419
sub-12,510,high_activation,incongruent,correct,653
sub-12,511,high_activation,incongruent,correct,407
sub-12,512,high_activation,congruent,correct,328
sub-12,513,high_activation,incongruent,correct,387
sub-12,514,high_activation,incongruent,correct,449
sub-12,515,high_activation,incongruent,correct,462
sub-12,516,high_activation,congruent,correct,547
sub-12,517,high_activation,incongruent,correct,659
sub-12,518,high_activation,incongruent,correct,440
sub-12,519,high_activation,congruent,correct,519
sub-12,520,high_activation,incongruent,correct,781
sub-12,521,high_activation,incongruent,correct,369
sub-12,522,high_activation,congruent,correct,347
sub-12,523,high_activation,incongruent,correct,588
sub-12,524,high_activation,congruent,correct,379
sub-12,525,high_activation,congruent,correct,375
sub-12,526,high_activation,incongruent,correct,577
sub-12,527,high_activation,congruent,correct,315
sub-12,528,high_activation,incongruent,correct,527
sub-12,529,high_activation,incongruent,correct,436
sub-12,530,high_activation,congruent,correct,426
sub-12,531,high_activation,congruent,correct,411
sub-12,532,high_activation,incongruent,correct,451
sub-12,533,high_activation,incongruent,correct,457
sub-12,534,high_activation,incongruent,correct,782
sub-12,535,high_activation,incongruent,correct,481
sub-12,536,high_activation,incongruent,correct,493
sub-12,537,high_activation,congruent,correct,473
sub-12,538,high_activation,congruent,correct,450
sub-12,539,high_activation,incongruent,correct,596
sub-12,540,high_activation,incongruent,correct,608
sub-12,541,high_activation,incongruent,correct,531
sub-12,542,high_activation,congruent,correct,482
sub-12,543,high_activation,congruent,correct,459
sub-12,544,high_activation,congruent,correct,489
sub-12,545,high_activation,incongruent,correct,586
sub-12,546,high_activation,congruent,correct,443
sub-12,547,high_activation,congruent,correct,387
sub-12,548,high_activation,congruent,correct,604
sub-12,549,high_activation,incongruent,correct,482
sub-12,550,high_activation,incongruent,correct,329
sub-12,551,high_activation,congruent,correct,448
sub-12,552,high_activation,congruent,correct,431
sub-12,553,high_activation,congruent,correct,361
sub-12,554,high_activation,congruent,correct,295
sub-12,555,high_activation,incongruent,correct,335
sub-12,556,high_activation,congruent,correct,259
sub-12,557,high_activation,incongruent,correct,357
sub-12,558,high_activation,incongruent,correct,360
sub-12,559,high_activation,congruent,correct,628
sub-12,560,high_activation,congruent,correct,369
sub-12,561,high_activation,congruent,correct,317
sub-12,562,high_activation,congruent,correct,316
sub-12,563,high_activation,congruent,correct,461
sub-12,564,high_activation,incongruent,correct,483
sub-12,565,high_activation,congruent,correct,500
sub-12,566,high_activation,congruent,correct,413
sub-12,567,high_activation,congruent,correct,367
sub-12,568,high_activation,incongruent,correct,383
sub-12,569,high_activation,incongruent,incorrect,329
sub-12,570,high_activation,congruent,correct,364
sub-12,571,high_activation,congruent,correct,531
sub-12,572,high_activation,congruent,correct,473
sub-12,573,high_activation,congruent,correct,469
sub-12,574,high_activation,congruent,correct,389
sub-12,575,high_activation,incongruent,correct,550
sub-12,576,high_activation,congruent,correct,425
sub-12,577,high_activation,congruent,correct,409
sub-12,578,high_activation,incongruent,correct,531
sub-12,579,high_activation,congruent,correct,492
sub-12,580,high_activation,congruent,correct,419
sub-12,581,high_activation,incongruent,correct,526
sub-12,582,high_activation,incongruent,correct,489
sub-12,583,high_activation,incongruent,correct,347
sub-12,584,high_activation,incongruent,correct,338
sub-12,585,high_activation,incongruent,correct,407
sub-12,586,high_activation,incongruent,correct,436
sub-12,587,high_activation,congruent,correct,452
sub-12,588,high_activation,incongruent,correct,635
sub-12,589,high_activation,congruent,correct,521
sub-12,590,high_activation,incongruent,correct,417
sub-12,591,high_activation,incongruent,correct,421
sub-12,592,high_activation,congruent,correct,507
sub-12,593,high_activation,incongruent,correct,479
sub-12,594,high_activation,congruent,correct,610
sub-12,595,high_activation,incongruent,correct,468
sub-12,596,high_activation,congruent,correct,457
sub-12,597,high_activation,congruent,correct,582
sub-12,598,high_activation,incongruent,correct,393
sub-12,599,high_activation,congruent,correct,393
sub-12,600,high_activation,congruent,correct,320
sub-12,601,high_activation,congruent,correct,375
sub-12,602,high_activation,incongruent,correct,456
sub-12,603,high_activation,congruent,correct,659
sub-12,604,high_activation,incongruent,correct,387
sub-12,605,high_activation,congruent,correct,358
sub-12,606,high_activation,incongruent,correct,353
sub-12,607,high_activation,incongruent,correct,435
sub-12,608,high_activation,congruent,correct,392
sub-12,609,high_activation,incongruent,correct,519
sub-12,610,high_activation,incongruent,correct,589
sub-12,611,high_activation,congruent,correct,597
sub-12,612,high_activation,congruent,correct,515
sub-12,613,high_activation,incongruent,correct,295
sub-12,614,high_activation,incongruent,correct,595
sub-12,615,high_activation,incongruent,correct,431
sub-12,616,high_activation,congruent,correct,352
sub-12,617,high_activation,incongruent,correct,377
sub-12,618,high_activation,incongruent,correct,555
sub-12,619,high_activation,congruent,correct,329
sub-12,620,high_activation,congruent,correct,393
sub-12,621,high_activation,incongruent,correct,612
sub-12,622,high_activation,incongruent,correct,482
sub-12,623,high_activation,congruent,correct,471
sub-12,624,high_activation,congruent,correct,362
sub-12,625,high_activation,congruent,correct,327
sub-12,626,high_activation,incongruent,correct,519
sub-12,627,high_activation,incongruent,correct,541
sub-12,628,high_activation,congruent,correct,707
sub-12,629,high_activation,incongruent,correct,585
sub-12,630,high_activation,incongruent,correct,854
sub-12,631,high_activation,congruent,correct,547
sub-12,632,high_activation,incongruent,correct,555
sub-12,633,high_activation,congruent,correct,433
sub-12,634,high_activation,incongruent,correct,486
sub-12,635,high_activation,incongruent,correct,537
sub-12,636,high_activation,congruent,correct,469
sub-12,637,high_activation,incongruent,correct,611
sub-12,638,high_activation,congruent,correct,574
sub-12,639,high_activation,incongruent,correct,577
sub-12,640,high_activation,congruent,correct,401
sub-12,641,high_activation,incongruent,correct,909
sub-12,642,high_activation,incongruent,correct,511
sub-12,643,high_activation,congruent,correct,655
sub-12,644,high_activation,congruent,correct,482
sub-12,645,high_activation,incongruent,correct,535
sub-12,646,high_activation,incongruent,correct,487
sub-12,647,high_activation,congruent,correct,397
sub-12,648,high_activation,congruent,correct,549
sub-12,649,high_activation,incongruent,correct,564
sub-12,650,high_activation,congruent,correct,449
sub-12,651,high_activation,congruent,correct,639
sub-12,652,high_activation,incongruent,correct,723
sub-12,653,high_activation,incongruent,correct,576
sub-12,654,high_activation,congruent,correct,571
sub-12,655,high_activation,incongruent,correct,487
sub-12,656,high_activation,congruent,correct,346
sub-12,657,high_activation,incongruent,correct,835
sub-12,658,high_activation,incongruent,correct,508
sub-12,659,high_activation,congruent,correct,463
sub-12,660,high_activation,congruent,correct,441
sub-12,661,high_activation,congruent,correct,373
sub-12,662,high_activation,incongruent,correct,594
sub-12,663,high_activation,congruent,correct,657
sub-12,664,high_activation,congruent,correct,623
sub-12,665,high_activation,congruent,correct,523
sub-12,666,high_activation,incongruent,correct,817
sub-12,667,high_activation,incongruent,correct,605
sub-12,668,high_activation,congruent,correct,529
sub-12,669,high_activation,incongruent,correct,564
sub-12,670,high_activation,incongruent,correct,509
sub-12,671,high_activation,congruent,correct,509
sub-12,672,high_activation,congruent,correct,537
sub-12,673,high_activation,incongruent,correct,522
sub-12,674,high_activation,congruent,correct,569
sub-12,675,high_activation,congruent,correct,450
sub-12,676,high_activation,congruent,correct,485
sub-12,677,high_activation,incongruent,correct,671
sub-12,678,high_activation,congruent,correct,897
sub-12,679,high_activation,incongruent,correct,415
sub-12,680,high_activation,incongruent,correct,524
sub-12,681,high_activation,incongruent,correct,356
sub-12,682,high_activation,congruent,correct,459
sub-12,683,high_activation,incongruent,correct,563
sub-12,684,high_activation,incongruent,correct,536
sub-12,685,high_activation,congruent,correct,593
sub-12,686,high_activation,congruent,correct,551
sub-12,687,high_activation,congruent,correct,497
sub-12,688,high_activation,congruent,correct,730
sub-12,689,high_activation,incongruent,correct,648
sub-12,690,high_activation,congruent,correct,455
sub-12,691,high_activation,incongruent,correct,607
sub-12,692,high_activation,incongruent,correct,403
sub-12,693,high_activation,congruent,correct,515
sub-12,694,high_activation,incongruent,correct,452
sub-12,695,high_activation,incongruent,correct,467
sub-12,696,high_activation,congruent,correct,481
sub-12,697,high_activation,congruent,correct,397
sub-12,698,high_activation,congruent,correct,371
sub-12,699,high_activation,congruent,correct,323
sub-12,700,high_activation,congruent,correct,528
sub-12,701,high_activation,congruent,correct,426
sub-12,702,high_activation,incongruent,correct,673
sub-12,703,high_activation,incongruent,correct,411
sub-12,704,high_activation,incongruent,correct,403
sub-12,705,high_activation,incongruent,correct,455
sub-12,706,high_activation,incongruent,correct,589
sub-12,707,high_activation,incongruent,correct,480
sub-12,708,high_activation,incongruent,correct,490
sub-12,709,high_activation,incongruent,correct,457
sub-12,710,high_activation,congruent,correct,384
sub-12,711,high_activation,incongruent,correct,470
sub-12,712,high_activation,incongruent,correct,452
sub-12,713,high_activation,congruent,correct,387
sub-12,714,high_activation,incongruent,correct,615
sub-12,715,high_activation,incongruent,correct,531
sub-12,716,high_activation,incongruent,correct,421
sub-12,717,high_activation,congruent,correct,407
sub-12,718,high_activation,congruent,correct,448
sub-12,719,high_activation,incongruent,correct,380
sub-12,720,high_activation,congruent,correct,387
sub-12,721,high_activation,incongruent,correct,497
sub-12,722,high_activation,incongruent,correct,603
sub-12,723,high_activation,congruent,correct,489
sub-12,724,high_activation,incongruent,correct,451
sub-12,725,high_activation,incongruent,correct,473
sub-12,726,high_activation,incongruent,correct,459
sub-12,727,high_activation,incongruent,correct,359
sub-12,728,high_activation,congruent,correct,449
sub-12,729,high_activation,congruent,correct,380
sub-12,730,high_activation,incongruent,correct,460
sub-12,731,high_activation,incongruent,correct,629
sub-12,732,high_activation,congruent,correct,507
sub-12,733,high_activation,congruent,correct,485
sub-12,734,high_activation,incongruent,correct,425
sub-12,735,high_activation,incongruent,correct,482
sub-12,736,high_activation,incongruent,correct,406
sub-12,737,high_activation,congruent,correct,574
sub-12,738,high_activation,incongruent,correct,481
sub-12,739,high_activation,congruent,correct,319
sub-12,740,high_activation,congruent,correct,493
sub-12,741,high_activation,incongruent,correct,465
sub-12,742,high_activation,incongruent,correct,463
sub-12,743,high_activation,congruent,correct,449
sub-12,744,high_activation,congruent,correct,453
sub-12,745,high_activation,congruent,correct,887
sub-12,746,high_activation,congruent,correct,368
sub-12,747,high_activation,incongruent,correct,735
sub-12,748,high_activation,incongruent,correct,381
sub-12,749,high_activation,congruent,correct,401
sub-12,750,high_activation,congruent,correct,469
sub-12,751,high_activation,congruent,correct,323
sub-12,752,high_activation,congruent,correct,316
sub-12,753,high_activation,incongruent,correct,327
sub-12,754,high_activation,incongruent,correct,585
sub-12,755,high_activation,incongruent,correct,425
sub-12,756,high_activation,incongruent,correct,455
sub-12,757,high_activation,congruent,correct,570
sub-12,758,high_activation,congruent,correct,527
sub-12,759,high_activation,congruent,correct,375
sub-12,760,high_activation,incongruent,correct,386
sub-12,761,high_activation,congruent,correct,313
sub-12,762,high_activation,incongruent,correct,389
sub-12,763,high_activation,incongruent,correct,378
sub-12,764,high_activation,congruent,correct,379
sub-12,765,high_activation,congruent,correct,526
sub-12,766,high_activation,incongruent,correct,511
sub-12,767,high_activation,congruent,correct,393
sub-12,768,high_activation,incongruent,correct,509
sub-12,769,high_activation,incongruent,correct,459
sub-12,770,high_activation,congruent,correct,357
sub-12,771,high_activation,incongruent,correct,344
sub-12,772,high_activation,congruent,correct,458
sub-12,773,high_activation,incongruent,incorrect,456
sub-12,774,high_activation,congruent,correct,511
sub-12,775,high_activation,congruent,correct,310
sub-12,776,high_activation,congruent,correct,329
sub-12,777,high_activation,incongruent,correct,440
sub-12,778,high_activation,congruent,correct,451
sub-12,779,high_activation,incongruent,correct,476
sub-12,780,high_activation,incongruent,correct,475
sub-12,781,high_activation,incongruent,correct,633
sub-12,782,high_activation,incongruent,correct,447
sub-12,783,high_activation,incongruent,correct,431
sub-12,784,high_activation,congruent,correct,451
sub-12,785,high_activation,congruent,correct,411
sub-12,786,high_activation,incongruent,correct,727
sub-12,787,high_activation,congruent,correct,373
sub-12,788,high_activation,incongruent,correct,585
sub-12,789,high_activation,congruent,correct,535
sub-12,790,high_activation,incongruent,correct,499
sub-12,791,high_activation,congruent,correct,621
sub-12,792,high_activation,congruent,correct,600
sub-12,793,high_activation,congruent,correct,323
sub-12,794,high_activation,incongruent,correct,455
sub-12,795,high_activation,incongruent,correct,495
sub-12,796,high_activation,incongruent,correct,547
sub-12,797,high_activation,incongruent,correct,428
sub-12,798,high_activation,incongruent,correct,377
sub-12,799,high_activation,incongruent,correct,465
sub-12,800,high_activation,congruent,correct,345
sub-12,801,high_activation,congruent,correct,309
sub-12,802,high_activation,congruent,correct,369
sub-12,803,high_activation,congruent,correct,345
sub-12,804,high_activation,incongruent,correct,437
sub-12,1,low_activation,incongruent,correct,744
sub-12,2,low_activation,congruent,correct,713
sub-12,3,low_activation,incongruent,correct,808
sub-12,4,low_activation,incongruent,correct,570
sub-12,5,low_activation,congruent,correct,556
sub-12,6,low_activation,congruent,correct,608
sub-12,7,low_activation,congruent,correct,518
sub-12,8,low_activation,incongruent,correct,658
sub-12,9,low_activation,congruent,correct,640
sub-12,10,low_activation,incongruent,correct,638
sub-12,11,low_activation,incongruent,correct,696
sub-12,12,low_activation,congruent,correct,692
sub-12,13,low_activation,congruent,correct,550
sub-12,14,low_activation,incongruent,correct,598
sub-12,15,low_activation,congruent,correct,660
sub-12,16,low_activation,congruent,correct,666
sub-12,17,low_activation,congruent,correct,653
sub-12,18,low_activation,congruent,correct,531
sub-12,19,low_activation,congruent,correct,588
sub-12,20,low_activation,incongruent,correct,760
sub-12,21,low_activation,incongruent,correct,683
sub-12,22,low_activation,incongruent,correct,625
sub-12,23,low_activation,incongruent,correct,586
sub-12,24,low_activation,incongruent,correct,664
sub-12,25,low_activation,congruent,correct,635
sub-12,26,low_activation,congruent,correct,671
sub-12,27,low_activation,congruent,correct,531
sub-12,28,low_activation,congruent,correct,483
sub-12,29,low_activation,congruent,correct,524
sub-12,30,low_activation,incongruent,correct,594
sub-12,31,low_activation,congruent,correct,512
sub-12,32,low_activation,incongruent,correct,518
sub-12,33,low_activation,congruent,correct,670
sub-12,34,low_activation,incongruent,correct,518
sub-12,35,low_activation,congruent,correct,543
sub-12,36,low_activation,incongruent,correct,589
sub-12,37,low_activation,incongruent,correct,681
sub-12,38,low_activation,congruent,correct,802
sub-12,39,low_activation,incongruent,correct,855
sub-12,40,low_activation,incongruent,correct,690
sub-12,41,low_activation,congruent,correct,724
sub-12,42,low_activation,incongruent,correct,598
sub-12,43,low_activation,incongruent,correct,705
sub-12,44,low_activation,congruent,correct,500
sub-12,45,low_activation,incongruent,correct,502
sub-12,46,low_activation,congruent,correct,571
sub-12,47,low_activation,incongruent,correct,634
sub-12,48,low_activation,congruent,correct,544
sub-12,49,low_activation,congruent,correct,562
sub-12,50,low_activation,incongruent,correct,510
sub-12,51,low_activation,congruent,correct,820
sub-12,52,low_activation,congruent,correct,718
sub-12,53,low_activation,congruent,correct,566
sub-12,54,low_activation,congruent,correct,604
sub-12,55,low_activation,incongruent,correct,530
sub-12,56,low_activation,congruent,correct,520
sub-12,57,low_activation,incongruent,correct,766
sub-12,58,low_activation,incongruent,correct,640
sub-12,59,low_activation,congruent,correct,622
sub-12,60,low_activation,incongruent,correct,464
sub-12,61,low_activation,incongruent,correct,622
sub-12,62,low_activation,incongruent,correct,578
sub-12,63,low_activation,congruent,correct,661
sub-12,64,low_activation,incongruent,correct,507
sub-12,65,low_activation,congruent,correct,536
sub-12,66,low_activation,congruent,correct,598
sub-12,67,low_activation,incongruent,correct,572
sub-12,68,low_activation,incongruent,correct,534
sub-12,69,low_activation,congruent,correct,507
sub-12,70,low_activation,congruent,correct,451
sub-12,71,low_activation,incongruent,correct,508
sub-12,72,low_activation,congruent,correct,493
sub-12,73,low_activation,incongruent,correct,598
sub-12,74,low_activation,congruent,correct,634
sub-12,75,low_activation,congruent,correct,482
sub-12,76,low_activation,incongruent,correct,499
sub-12,77,low_activation,congruent,correct,508
sub-12,78,low_activation,congruent,correct,438
sub-12,79,low_activation,incongruent,correct,482
sub-12,80,low_activation,incongruent,correct,510
sub-12,81,low_activation,congruent,correct,510
sub-12,82,low_activation,incongruent,correct,532
sub-12,83,low_activation,incongruent,correct,496
sub-12,84,low_activation,incongruent,correct,512
sub-12,85,low_activation,incongruent,correct,422
sub-12,86,low_activation,incongruent,correct,538
sub-12,87,low_activation,congruent,correct,484
sub-12,88,low_activation,congruent,correct,438
sub-12,89,low_activation,incongruent,correct,388
sub-12,90,low_activation,congruent,correct,418
sub-12,91,low_activation,congruent,correct,396
sub-12,92,low_activation,congruent,correct,455
sub-12,93,low_activation,congruent,correct,416
sub-12,94,low_activation,incongruent,correct,484
sub-12,95,low_activation,congruent,correct,421
sub-12,96,low_activation,incongruent,correct,569
sub-12,97,low_activation,incongruent,correct,424
sub-12,98,low_activation,incongruent,correct,655
sub-12,99,low_activation,congruent,correct,422
sub-12,100,low_activation,incongruent,correct,591
sub-12,101,low_activation,congruent,correct,560
sub-12,102,low_activation,incongruent,correct,470
sub-12,103,low_activation,congruent,correct,543
sub-12,104,low_activation,incongruent,correct,734
sub-12,105,low_activation,congruent,correct,722
sub-12,106,low_activation,congruent,correct,672
sub-12,107,low_activation,congruent,correct,592
sub-12,108,low_activation,incongruent,correct,630
sub-12,109,low_activation,incongruent,correct,772
sub-12,110,low_activation,incongruent,correct,841
sub-12,111,low_activation,congruent,correct,809
sub-12,112,low_activation,congruent,correct,692
sub-12,113,low_activation,incongruent,correct,802
sub-12,114,low_activation,congruent,correct,830
sub-12,115,low_activation,congruent,correct,980
sub-12,116,low_activation,congruent,correct,760
sub-12,117,low_activation,incongruent,correct,874
sub-12,118,low_activation,congruent,correct,768
sub-12,119,low_activation,incongruent,correct,812
sub-12,120,low_activation,incongruent,correct,796
sub-12,121,low_activation,incongruent,correct,830
sub-12,122,low_activation,incongruent,correct,832
sub-12,123,low_activation,incongruent,correct,798
sub-12,124,low_activation,congruent,correct,782
sub-12,125,low_activation,congruent,correct,838
sub-12,126,low_activation,incongruent,correct,798
sub-12,127,low_activation,congruent,correct,760
sub-12,128,low_activation,congruent,correct,631
sub-12,129,low_activation,congruent,correct,686
sub-12,130,low_activation,incongruent,correct,628
sub-12,131,low_activation,congruent,correct,773
sub-12,132,low_activation,congruent,correct,658
sub-12,133,low_activation,congruent,correct,718
sub-12,134,low_activation,incongruent,correct,854
sub-12,135,low_activation,incongruent,correct,862
sub-12,136,low_activation,incongruent,correct,817
sub-12,137,low_activation,congruent,correct,748
sub-12,138,low_activation,incongruent,correct,697
sub-12,139,low_activation,incongruent,correct,728
sub-12,140,low_activation,congruent,correct,648
sub-12,141,low_activation,congruent,correct,716
sub-12,142,low_activation,congruent,correct,758
sub-12,143,low_activation,incongruent,correct,718
sub-12,144,low_activation,incongruent,correct,708
sub-12,145,low_activation,incongruent,correct,792
sub-12,146,low_activation,congruent,correct,803
sub-12,147,low_activation,incongruent,correct,600
sub-12,148,low_activation,congruent,correct,530
sub-12,149,low_activation,incongruent,correct,594
sub-12,150,low_activation,congruent,correct,624
sub-12,151,low_activation,incongruent,correct,720
sub-12,152,low_activation,congruent,correct,726
sub-12,153,low_activation,congruent,correct,786
sub-12,154,low_activation,congruent,correct,863
sub-12,155,low_activation,incongruent,correct,995
sub-12,156,low_activation,incongruent,correct,894
sub-12,157,low_activation,congruent,correct,821
sub-12,158,low_activation,incongruent,correct,792
sub-12,159,low_activation,incongruent,correct,994
sub-12,160,low_activation,congruent,correct,816
sub-12,161,low_activation,congruent,correct,751
sub-12,162,low_activation,incongruent,correct,770
sub-12,163,low_activation,congruent,correct,802
sub-12,164,low_activation,incongruent,correct,798
sub-12,165,low_activation,congruent,correct,804
sub-12,166,low_activation,incongruent,correct,678
sub-12,167,low_activation,congruent,correct,791
sub-12,168,low_activation,incongruent,correct,896
sub-12,169,low_activation,incongruent,correct,880
sub-12,170,low_activation,congruent,correct,794
sub-12,171,low_activation,congruent,correct,509
sub-12,172,low_activation,incongruent,correct,687
sub-12,173,low_activation,incongruent,correct,655
sub-12,174,low_activation,incongruent,correct,744
sub-12,175,low_activation,incongruent,correct,790
sub-12,176,low_activation,congruent,correct,616
sub-12,177,low_activation,congruent,correct,486
sub-12,178,low_activation,congruent,correct,606
sub-12,179,low_activation,incongruent,correct,660
sub-12,180,low_activation,congruent,correct,676
sub-12,181,low_activation,incongruent,correct,788
sub-12,182,low_activation,congruent,correct,536
sub-12,183,low_activation,incongruent,correct,541
sub-12,184,low_activation,congruent,correct,497
sub-12,185,low_activation,congruent,correct,572
sub-12,186,low_activation,incongruent,correct,840
sub-12,187,low_activation,congruent,correct,645
sub-12,188,low_activation,congruent,correct,572
sub-12,189,low_activation,incongruent,correct,684
sub-12,190,low_activation,congruent,correct,684
sub-12,191,low_activation,incongruent,correct,694
sub-12,192,low_activation,congruent,correct,800
sub-12,193,low_activation,congruent,correct,791
sub-12,194,low_activation,congruent,correct,668
sub-12,195,low_activation,incongruent,correct,704
sub-12,196,low_activation,incongruent,correct,683
sub-12,197,low_activation,congruent,correct,648
sub-12,198,low_activation,incongruent,correct,672
sub-12,199,low_activation,incongruent,correct,782
sub-12,200,low_activation,incongruent,correct,630
sub-12,201,low_activation,congruent,correct,640
sub-12,202,low_activation,incongruent,correct,775
sub-12,203,low_activation,congruent,correct,878
sub-12,204,low_activation,congruent,correct,644
sub-12,205,low_activation,incongruent,correct,462
sub-12,206,low_activation,congruent,correct,638
sub-12,207,low_activation,incongruent,correct,658
sub-12,208,low_activation,incongruent,correct,600
sub-12,209,low_activation,congruent,correct,528
sub-12,210,low_activation,incongruent,correct,967
sub-12,211,low_activation,incongruent,correct,716
sub-12,212,low_activation,congruent,correct,745
sub-12,213,low_activation,congruent,correct,774
sub-12,214,low_activation,incongruent,correct,816
sub-12,215,low_activation,congruent,correct,806
sub-12,216,low_activation,incongruent,correct,756
sub-12,217,low_activation,congruent,correct,774
sub-12,218,low_activation,congruent,correct,698
sub-12,219,low_activation,incongruent,correct,650
sub-12,220,low_activation,incongruent,correct,872
sub-12,221,low_activation,congruent,correct,782
sub-12,222,low_activation,congruent,correct,686
sub-12,223,low_activation,congruent,correct,747
sub-12,224,low_activation,incongruent,correct,732
sub-12,225,low_activation,incongruent,correct,716
sub-12,226,low_activation,incongruent,correct,678
sub-12,227,low_activation,incongruent,correct,740
sub-12,228,low_activation,incongruent,correct,622
sub-12,229,low_activation,congruent,correct,658
sub-12,230,low_activation,congruent,correct,678
sub-12,231,low_activation,congruent,correct,718
sub-12,232,low_activation,congruent,correct,706
sub-12,233,low_activation,incongruent,correct,676
sub-12,234,low_activation,congruent,correct,726
sub-12,235,low_activation,incongruent,correct,691
sub-12,236,low_activation,congruent,correct,670
sub-12,237,low_activation,incongruent,correct,627
sub-12,238,low_activation,congruent,correct,534
sub-12,239,low_activation,congruent,correct,570
sub-12,240,low_activation,congruent,correct,574
sub-12,241,low_activation,incongruent,correct,562
sub-12,242,low_activation,incongruent,correct,608
sub-12,243,low_activation,congruent,correct,562
sub-12,244,low_activation,congruent,correct,673
sub-12,245,low_activation,incongruent,correct,574
sub-12,246,low_activation,congruent,correct,452
sub-12,247,low_activation,incongruent,correct,586
sub-12,248,low_activation,incongruent,correct,644
sub-12,249,low_activation,congruent,correct,622
sub-12,250,low_activation,incongruent,correct,658
sub-12,251,low_activation,incongruent,correct,748
sub-12,252,low_activation,congruent,correct,626
sub-12,253,low_activation,incongruent,correct,856
sub-12,254,low_activation,congruent,correct,762
sub-12,255,low_activation,incongruent,correct,861
sub-12,256,low_activation,congruent,correct,910
sub-12,257,low_activation,incongruent,correct,566
sub-12,258,low_activation,incongruent,correct,696
sub-12,259,low_activation,congruent,correct,723
sub-12,260,low_activation,incongruent,correct,689
sub-12,261,low_activation,congruent,correct,676
sub-12,262,low_activation,incongruent,correct,610
sub-12,263,low_activation,incongruent,correct,696
sub-12,264,low_activation,incongruent,correct,738
sub-12,265,low_activation,incongruent,correct,1419
sub-12,266,low_activation,incongruent,,NaN
sub-12,267,low_activation,incongruent,,NaN
sub-12,268,low_activation,congruent,correct,953
sub-12,269,low_activation,congruent,correct,1690
sub-12,270,low_activation,incongruent,,NaN
sub-12,271,low_activation,congruent,correct,1074
sub-12,272,low_activation,congruent,correct,861
sub-12,273,low_activation,incongruent,,NaN
sub-12,274,low_activation,incongruent,correct,1310
sub-12,275,low_activation,congruent,correct,686
sub-12,276,low_activation,congruent,correct,758
sub-12,277,low_activation,incongruent,correct,724
sub-12,278,low_activation,incongruent,correct,793
sub-12,279,low_activation,congruent,correct,778
sub-12,280,low_activation,incongruent,correct,702
sub-12,281,low_activation,congruent,correct,756
sub-12,282,low_activation,incongruent,correct,850
sub-12,283,low_activation,congruent,correct,786
sub-12,284,low_activation,incongruent,correct,894
sub-12,285,low_activation,incongruent,correct,739
sub-12,286,low_activation,incongruent,correct,700
sub-12,287,low_activation,incongruent,correct,734
sub-12,288,low_activation,incongruent,correct,722
sub-12,289,low_activation,congruent,correct,574
sub-12,290,low_activation,congruent,correct,575
sub-12,291,low_activation,incongruent,correct,684
sub-12,292,low_activation,incongruent,correct,660
sub-12,293,low_activation,incongruent,correct,710
sub-12,294,low_activation,incongruent,correct,754
sub-12,295,low_activation,congruent,correct,651
sub-12,296,low_activation,congruent,correct,642
sub-12,297,low_activation,congruent,correct,760
sub-12,298,low_activation,congruent,correct,666
sub-12,299,low_activation,congruent,correct,784
sub-12,300,low_activation,incongruent,correct,756
sub-12,301,low_activation,congruent,correct,585
sub-12,302,low_activation,congruent,correct,694
sub-12,303,low_activation,congruent,correct,708
sub-12,304,low_activation,congruent,correct,764
sub-12,305,low_activation,incongruent,correct,868
sub-12,306,low_activation,incongruent,correct,692
sub-12,307,low_activation,congruent,correct,654
sub-12,308,low_activation,incongruent,correct,638
sub-12,309,low_activation,congruent,correct,597
sub-12,310,low_activation,congruent,correct,736
sub-12,311,low_activation,congruent,correct,894
sub-12,312,low_activation,incongruent,correct,904
sub-12,313,low_activation,incongruent,correct,782
sub-12,314,low_activation,congruent,correct,688
sub-12,315,low_activation,congruent,correct,720
sub-12,316,low_activation,incongruent,correct,614
sub-12,317,low_activation,incongruent,correct,642
sub-12,318,low_activation,incongruent,correct,678
sub-12,319,low_activation,congruent,correct,796
sub-12,320,low_activation,incongruent,correct,782
sub-12,321,low_activation,congruent,correct,651
sub-12,322,low_activation,incongruent,correct,677
sub-12,323,low_activation,congruent,correct,724
sub-12,324,low_activation,congruent,correct,732
sub-12,325,low_activation,incongruent,correct,710
sub-12,326,low_activation,incongruent,correct,635
sub-12,327,low_activation,incongruent,correct,608
sub-12,328,low_activation,incongruent,correct,656
sub-12,329,low_activation,congruent,correct,671
sub-12,330,low_activation,incongruent,correct,662
sub-12,331,low_activation,incongruent,correct,712
sub-12,332,low_activation,congruent,correct,772
sub-12,333,low_activation,incongruent,correct,658
sub-12,334,low_activation,incongruent,correct,722
sub-12,335,low_activation,congruent,correct,803
sub-12,336,low_activation,congruent,correct,766
sub-12,337,low_activation,incongruent,correct,748
sub-12,338,low_activation,congruent,correct,568
sub-12,339,low_activation,congruent,correct,620
sub-12,340,low_activation,incongruent,correct,595
sub-12,341,low_activation,incongruent,correct,628
sub-12,342,low_activation,congruent,correct,652
sub-12,343,low_activation,incongruent,correct,732
sub-12,344,low_activation,congruent,correct,588
sub-12,345,low_activation,incongruent,correct,580
sub-12,346,low_activation,incongruent,correct,704
sub-12,347,low_activation,congruent,correct,622
sub-12,348,low_activation,incongruent,correct,662
sub-12,349,low_activation,congruent,correct,715
sub-12,350,low_activation,incongruent,correct,780
sub-12,351,low_activation,incongruent,correct,774
sub-12,352,low_activation,incongruent,correct,736
sub-12,353,low_activation,congruent,correct,777
sub-12,354,low_activation,incongruent,correct,678
sub-12,355,low_activation,incongruent,correct,670
sub-12,356,low_activation,congruent,correct,837
sub-12,357,low_activation,incongruent,correct,926
sub-12,358,low_activation,congruent,correct,674
sub-12,359,low_activation,incongruent,correct,783
sub-12,360,low_activation,incongruent,correct,550
sub-12,361,low_activation,congruent,correct,620
sub-12,362,low_activation,incongruent,correct,689
sub-12,363,low_activation,incongruent,correct,734
sub-12,364,low_activation,incongruent,correct,773
sub-12,365,low_activation,congruent,correct,745
sub-12,366,low_activation,incongruent,correct,754
sub-12,367,low_activation,congruent,correct,658
sub-12,368,low_activation,incongruent,correct,794
sub-12,369,low_activation,incongruent,correct,722
sub-12,370,low_activation,incongruent,correct,768
sub-12,371,low_activation,incongruent,correct,696
sub-12,372,low_activation,incongruent,correct,756
sub-12,373,low_activation,congruent,correct,646
sub-12,374,low_activation,incongruent,correct,768
sub-12,375,low_activation,congruent,correct,706
sub-12,376,low_activation,incongruent,correct,772
sub-12,377,low_activation,incongruent,correct,620
sub-12,378,low_activation,congruent,correct,735
sub-12,379,low_activation,congruent,correct,660
sub-12,380,low_activation,incongruent,correct,762
sub-12,381,low_activation,incongruent,correct,709
sub-12,382,low_activation,incongruent,correct,646
sub-12,383,low_activation,incongruent,correct,698
sub-12,384,low_activation,congruent,correct,602
sub-12,385,low_activation,congruent,correct,728
sub-12,386,low_activation,incongruent,correct,634
sub-12,387,low_activation,congruent,correct,624
sub-12,388,low_activation,congruent,correct,603
sub-12,389,low_activation,incongruent,correct,587
sub-12,390,low_activation,congruent,correct,541
sub-12,391,low_activation,congruent,correct,609
sub-12,392,low_activation,congruent,correct,528
sub-12,393,low_activation,congruent,correct,602
sub-12,394,low_activation,congruent,correct,608
sub-12,395,low_activation,congruent,correct,482
sub-12,396,low_activation,incongruent,correct,484
sub-12,397,low_activation,congruent,correct,631
sub-12,398,low_activation,incongruent,correct,664
sub-12,399,low_activation,incongruent,correct,842
sub-12,400,low_activation,incongruent,correct,731
sub-12,401,low_activation,incongruent,correct,603
sub-12,402,low_activation,incongruent,correct,668
sub-12,403,low_activation,congruent,correct,593
sub-12,404,low_activation,incongruent,correct,718
sub-12,405,low_activation,incongruent,correct,603
sub-12,406,low_activation,congruent,correct,562
sub-12,407,low_activation,congruent,correct,536
sub-12,408,low_activation,incongruent,correct,559
sub-12,409,low_activation,incongruent,correct,513
sub-12,410,low_activation,incongruent,correct,669
sub-12,411,low_activation,congruent,correct,519
sub-12,412,low_activation,congruent,correct,636
sub-12,413,low_activation,incongruent,correct,576
sub-12,414,low_activation,incongruent,correct,647
sub-12,415,low_activation,incongruent,correct,782
sub-12,416,low_activation,incongruent,correct,548
sub-12,417,low_activation,incongruent,correct,567
sub-12,418,low_activation,congruent,correct,622
sub-12,419,low_activation,incongruent,correct,670
sub-12,420,low_activation,incongruent,correct,582
sub-12,421,low_activation,congruent,correct,749
sub-12,422,low_activation,incongruent,correct,729
sub-12,423,low_activation,congruent,correct,725
sub-12,424,low_activation,incongruent,incorrect,692
sub-12,425,low_activation,congruent,correct,506
sub-12,426,low_activation,incongruent,correct,820
sub-12,427,low_activation,incongruent,correct,826
sub-12,428,low_activation,congruent,correct,711
sub-12,429,low_activation,congruent,correct,716
sub-12,430,low_activation,congruent,correct,699
sub-12,431,low_activation,congruent,correct,689
sub-12,432,low_activation,congruent,correct,660
sub-12,433,low_activation,incongruent,correct,754
sub-12,434,low_activation,congruent,correct,652
sub-12,435,low_activation,congruent,correct,528
sub-12,436,low_activation,incongruent,correct,698
sub-12,437,low_activation,congruent,correct,668
sub-12,438,low_activation,incongruent,correct,750
sub-12,439,low_activation,congruent,correct,641
sub-12,440,low_activation,incongruent,correct,810
sub-12,441,low_activation,congruent,correct,918
sub-12,442,low_activation,congruent,correct,889
sub-12,443,low_activation,congruent,correct,876
sub-12,444,low_activation,incongruent,correct,912
sub-12,445,low_activation,incongruent,correct,725
sub-12,446,low_activation,congruent,correct,816
sub-12,447,low_activation,congruent,correct,1146
sub-12,448,low_activation,congruent,correct,704
sub-12,449,low_activation,congruent,correct,808
sub-12,450,low_activation,congruent,correct,628
sub-12,451,low_activation,incongruent,correct,574
sub-12,452,low_activation,incongruent,correct,871
sub-12,453,low_activation,incongruent,correct,786
sub-12,454,low_activation,congruent,correct,900
sub-12,455,low_activation,congruent,correct,558
sub-12,456,low_activation,incongruent,correct,872
sub-12,457,low_activation,incongruent,correct,709
sub-12,458,low_activation,congruent,correct,761
sub-12,459,low_activation,congruent,correct,704
sub-12,460,low_activation,congruent,correct,797
sub-12,461,low_activation,incongruent,correct,732
sub-12,462,low_activation,incongruent,correct,717
sub-12,463,low_activation,congruent,correct,698
sub-12,464,low_activation,congruent,correct,786
sub-12,465,low_activation,incongruent,correct,633
sub-12,466,low_activation,congruent,correct,809
sub-12,467,low_activation,congruent,correct,765
sub-12,468,low_activation,incongruent,correct,718
sub-12,469,low_activation,incongruent,correct,724
sub-12,470,low_activation,congruent,correct,770
sub-12,471,low_activation,congruent,correct,634
sub-12,472,low_activation,congruent,correct,802
sub-12,473,low_activation,congruent,correct,740
sub-12,474,low_activation,incongruent,correct,711
sub-12,475,low_activation,incongruent,correct,690
sub-12,476,low_activation,congruent,correct,600
sub-12,477,low_activation,incongruent,correct,746
sub-12,478,low_activation,congruent,correct,656
sub-12,479,low_activation,incongruent,correct,705
sub-12,480,low_activation,incongruent,correct,670
sub-12,481,low_activation,incongruent,correct,738
sub-12,482,low_activation,congruent,correct,566
sub-12,483,low_activation,incongruent,correct,772
sub-12,484,low_activation,incongruent,correct,664
sub-12,485,low_activation,congruent,correct,764
sub-12,486,low_activation,incongruent,correct,592
sub-12,487,low_activation,incongruent,correct,626
sub-12,488,low_activation,congruent,correct,574
sub-12,489,low_activation,incongruent,correct,714
sub-12,490,low_activation,congruent,correct,871
sub-12,491,low_activation,congruent,correct,756
sub-12,492,low_activation,congruent,correct,765
sub-12,493,low_activation,incongruent,correct,885
sub-12,494,low_activation,congruent,correct,1031
sub-12,495,low_activation,congruent,correct,982
sub-12,496,low_activation,congruent,correct,763
sub-12,497,low_activation,incongruent,correct,868
sub-12,498,low_activation,congruent,correct,756
sub-12,499,low_activation,incongruent,correct,700
sub-12,500,low_activation,congruent,correct,795
sub-12,501,low_activation,congruent,correct,634
sub-12,502,low_activation,congruent,correct,619
sub-12,503,low_activation,congruent,correct,644
sub-12,504,low_activation,congruent,correct,591
sub-12,505,low_activation,incongruent,correct,703
sub-12,506,low_activation,incongruent,correct,650
sub-12,507,low_activation,incongruent,correct,911
sub-12,508,low_activation,incongruent,correct,941
sub-12,509,low_activation,congruent,correct,936
sub-12,510,low_activation,congruent,correct,658
sub-12,511,low_activation,incongruent,correct,800
sub-12,512,low_activation,incongruent,correct,744
sub-12,513,low_activation,congruent,correct,754
sub-12,514,low_activation,congruent,correct,631
sub-12,515,low_activation,incongruent,correct,896
sub-12,516,low_activation,congruent,correct,751
sub-12,517,low_activation,congruent,correct,632
sub-12,518,low_activation,incongruent,correct,892
sub-12,519,low_activation,congruent,correct,837
sub-12,520,low_activation,congruent,correct,766
sub-12,521,low_activation,incongruent,correct,843
sub-12,522,low_activation,congruent,correct,747
sub-12,523,low_activation,congruent,correct,820
sub-12,524,low_activation,incongruent,correct,798
sub-12,525,low_activation,incongruent,correct,868
sub-12,526,low_activation,incongruent,correct,799
sub-12,527,low_activation,congruent,correct,921
sub-12,528,low_activation,incongruent,correct,896
sub-12,529,low_activation,incongruent,correct,902
sub-12,530,low_activation,congruent,correct,828
sub-12,531,low_activation,incongruent,correct,756
sub-12,532,low_activation,incongruent,correct,640
sub-12,533,low_activation,incongruent,correct,700
sub-12,534,low_activation,congruent,correct,747
sub-12,535,low_activation,incongruent,correct,791
sub-12,536,low_activation,incongruent,incorrect,772
sub-12,537,low_activation,incongruent,correct,628
sub-12,538,low_activation,congruent,correct,718
sub-12,539,low_activation,congruent,correct,943
sub-12,540,low_activation,incongruent,correct,767
sub-12,541,low_activation,incongruent,correct,782
sub-12,542,low_activation,incongruent,correct,961
sub-12,543,low_activation,congruent,correct,859
sub-12,544,low_activation,congruent,correct,759
sub-12,545,low_activation,congruent,correct,837
sub-12,546,low_activation,incongruent,correct,829
sub-12,547,low_activation,congruent,correct,878
sub-12,548,low_activation,incongruent,correct,984
sub-12,549,low_activation,incongruent,correct,834
sub-12,550,low_activation,incongruent,correct,900
sub-12,551,low_activation,congruent,correct,844
sub-12,552,low_activation,congruent,correct,787
sub-12,553,low_activation,incongruent,correct,842
sub-12,554,low_activation,congruent,correct,1052
sub-12,555,low_activation,incongruent,correct,842
sub-12,556,low_activation,congruent,correct,954
sub-12,557,low_activation,incongruent,correct,980
sub-12,558,low_activation,congruent,correct,1021
sub-12,559,low_activation,incongruent,correct,1026
sub-12,560,low_activation,incongruent,correct,963
sub-12,561,low_activation,congruent,correct,950
sub-12,562,low_activation,incongruent,correct,788
sub-12,563,low_activation,congruent,correct,916
sub-12,564,low_activation,congruent,correct,918
sub-12,565,low_activation,incongruent,correct,881
sub-12,566,low_activation,congruent,correct,824
sub-12,567,low_activation,incongruent,correct,865
sub-12,568,low_activation,congruent,correct,992
sub-12,569,low_activation,congruent,correct,1084
sub-12,570,low_activation,congruent,correct,1040
sub-12,571,low_activation,incongruent,correct,808
sub-12,572,low_activation,congruent,correct,718
sub-12,573,low_activation,incongruent,correct,805
sub-12,574,low_activation,congruent,correct,927
sub-12,575,low_activation,incongruent,correct,832
sub-12,576,low_activation,incongruent,correct,914
sub-12,577,low_activation,incongruent,correct,876
sub-12,578,low_activation,incongruent,correct,856
sub-12,579,low_activation,incongruent,correct,784
sub-12,580,low_activation,congruent,correct,894
sub-12,581,low_activation,incongruent,correct,883
sub-12,582,low_activation,incongruent,correct,1060
sub-12,583,low_activation,congruent,correct,918
sub-12,584,low_activation,congruent,correct,1155
sub-12,585,low_activation,incongruent,correct,1037
sub-12,586,low_activation,congruent,correct,1062
sub-12,587,low_activation,congruent,correct,718
sub-12,588,low_activation,incongruent,correct,704
sub-12,589,low_activation,incongruent,correct,816
sub-12,590,low_activation,congruent,correct,832
sub-12,591,low_activation,incongruent,correct,996
sub-12,592,low_activation,incongruent,correct,825
sub-12,593,low_activation,incongruent,correct,1051
sub-12,594,low_activation,incongruent,correct,624
sub-12,595,low_activation,congruent,correct,506
sub-12,596,low_activation,incongruent,correct,488
sub-12,597,low_activation,congruent,correct,562
sub-12,598,low_activation,incongruent,correct,623
sub-12,599,low_activation,congruent,correct,624
sub-12,600,low_activation,congruent,correct,566
sub-12,601,low_activation,congruent,correct,610
sub-12,602,low_activation,incongruent,correct,641
sub-12,603,low_activation,congruent,correct,721
sub-12,604,low_activation,incongruent,correct,704
sub-12,605,low_activation,congruent,correct,820
sub-12,606,low_activation,congruent,correct,810
sub-12,607,low_activation,congruent,correct,680
sub-12,608,low_activation,congruent,correct,668
sub-12,609,low_activation,congruent,correct,583
sub-12,610,low_activation,incongruent,correct,676
sub-12,611,low_activation,congruent,correct,659
sub-12,612,low_activation,congruent,correct,734
sub-12,613,low_activation,incongruent,correct,691
sub-12,614,low_activation,congruent,correct,856
sub-12,615,low_activation,congruent,correct,608
sub-12,616,low_activation,congruent,correct,686
sub-12,617,low_activation,incongruent,correct,692
sub-12,618,low_activation,incongruent,correct,630
sub-12,619,low_activation,incongruent,correct,650
sub-12,620,low_activation,congruent,correct,630
sub-12,621,low_activation,incongruent,correct,676
sub-12,622,low_activation,incongruent,correct,716
sub-12,623,low_activation,incongruent,correct,658
sub-12,624,low_activation,congruent,correct,701
sub-12,625,low_activation,congruent,correct,728
sub-12,626,low_activation,incongruent,correct,665
sub-12,627,low_activation,congruent,correct,751
sub-12,628,low_activation,incongruent,correct,688
sub-12,629,low_activation,congruent,correct,716
sub-12,630,low_activation,incongruent,correct,754
sub-12,631,low_activation,incongruent,correct,686
sub-12,632,low_activation,incongruent,correct,927
sub-12,633,low_activation,incongruent,correct,658
sub-12,634,low_activation,incongruent,correct,639
sub-12,635,low_activation,congruent,correct,588
sub-12,636,low_activation,congruent,correct,590
sub-12,637,low_activation,incongruent,correct,671
sub-12,638,low_activation,incongruent,correct,890
sub-12,639,low_activation,incongruent,correct,914
sub-12,640,low_activation,congruent,correct,808
sub-12,641,low_activation,incongruent,correct,827
sub-12,642,low_activation,congruent,correct,694
sub-12,643,low_activation,congruent,correct,696
sub-12,644,low_activation,incongruent,correct,611
sub-12,645,low_activation,congruent,correct,716
sub-12,646,low_activation,incongruent,correct,692
sub-12,647,low_activation,incongruent,correct,673
sub-12,648,low_activation,incongruent,correct,681
sub-12,649,low_activation,congruent,correct,648
sub-12,650,low_activation,incongruent,correct,692
sub-12,651,low_activation,congruent,correct,654
sub-12,652,low_activation,congruent,correct,676
sub-12,653,low_activation,incongruent,correct,732
sub-12,654,low_activation,incongruent,correct,628
sub-12,655,low_activation,congruent,correct,805
sub-12,656,low_activation,congruent,correct,675
sub-12,657,low_activation,incongruent,correct,846
sub-12,658,low_activation,congruent,correct,700
sub-12,659,low_activation,incongruent,correct,833
sub-12,660,low_activation,congruent,correct,812
sub-12,661,low_activation,congruent,correct,597
sub-12,662,low_activation,congruent,correct,626
sub-12,663,low_activation,congruent,correct,694
sub-12,664,low_activation,congruent,correct,854
sub-12,665,low_activation,congruent,correct,820
sub-12,666,low_activation,incongruent,correct,780
sub-12,667,low_activation,congruent,correct,741
sub-12,668,low_activation,congruent,correct,704
sub-12,669,low_activation,congruent,correct,692
sub-12,670,low_activation,congruent,correct,742
sub-12,671,low_activation,congruent,correct,808
sub-12,672,low_activation,incongruent,correct,726
sub-12,673,low_activation,incongruent,correct,856
sub-12,674,low_activation,incongruent,correct,578
sub-12,675,low_activation,congruent,correct,668
sub-12,676,low_activation,congruent,correct,685
sub-12,677,low_activation,incongruent,correct,850
sub-12,678,low_activation,incongruent,correct,644
sub-12,679,low_activation,incongruent,correct,770
sub-12,680,low_activation,congruent,correct,759
sub-12,681,low_activation,incongruent,correct,787
sub-12,682,low_activation,congruent,correct,762
sub-12,683,low_activation,congruent,correct,734
sub-12,684,low_activation,incongruent,correct,650
sub-12,685,low_activation,congruent,correct,776
sub-12,686,low_activation,congruent,correct,743
sub-12,687,low_activation,congruent,correct,904
sub-12,688,low_activation,congruent,correct,805
sub-12,689,low_activation,congruent,correct,595
sub-12,690,low_activation,incongruent,correct,926
sub-12,691,low_activation,congruent,correct,656
sub-12,692,low_activation,incongruent,correct,682
sub-12,693,low_activation,congruent,correct,572
sub-12,694,low_activation,congruent,correct,546
sub-12,695,low_activation,incongruent,correct,543
sub-12,696,low_activation,congruent,correct,511
sub-12,697,low_activation,incongruent,correct,592
sub-12,698,low_activation,incongruent,correct,722
sub-12,699,low_activation,congruent,correct,600
sub-12,700,low_activation,incongruent,correct,730
sub-12,701,low_activation,congruent,correct,575
sub-12,702,low_activation,incongruent,correct,835
sub-12,703,low_activation,incongruent,correct,825
sub-12,704,low_activation,congruent,correct,857
sub-12,705,low_activation,incongruent,correct,835
sub-12,706,low_activation,congruent,correct,780
sub-12,707,low_activation,incongruent,correct,938
sub-12,708,low_activation,congruent,correct,608
sub-12,709,low_activation,incongruent,correct,762
sub-12,710,low_activation,incongruent,correct,894
sub-12,711,low_activation,incongruent,correct,820
sub-12,712,low_activation,congruent,correct,938
sub-12,713,low_activation,incongruent,correct,743
sub-12,714,low_activation,congruent,correct,794
sub-12,715,low_activation,congruent,correct,715
sub-12,716,low_activation,incongruent,correct,1004
sub-12,717,low_activation,incongruent,correct,1362
sub-12,718,low_activation,congruent,correct,934
sub-12,719,low_activation,incongruent,correct,720
sub-12,720,low_activation,incongruent,correct,670
sub-12,721,low_activation,congruent,correct,766
sub-12,722,low_activation,incongruent,correct,776
sub-12,723,low_activation,congruent,correct,602
sub-12,724,low_activation,congruent,correct,703
