sub_ID,trial_number,physical_activation,trial_congruency,resp_correctness,reaction_times
sub-03,1,high_activation,congruent,correct,502
sub-03,2,high_activation,congruent,correct,380
sub-03,3,high_activation,incongruent,correct,370
sub-03,4,high_activation,incongruent,correct,286
sub-03,5,high_activation,incongruent,correct,414
sub-03,6,high_activation,congruent,correct,418
sub-03,7,high_activation,incongruent,correct,568
sub-03,8,high_activation,congruent,correct,402
sub-03,9,high_activation,congruent,correct,580
sub-03,10,high_activation,congruent,correct,388
sub-03,11,high_activation,incongruent,correct,434
sub-03,12,high_activation,congruent,correct,256
sub-03,13,high_activation,incongruent,correct,368
sub-03,14,high_activation,congruent,correct,412
sub-03,15,high_activation,congruent,correct,328
sub-03,16,high_activation,incongruent,correct,410
sub-03,17,high_activation,congruent,correct,356
sub-03,18,high_activation,incongruent,incorrect,344
sub-03,19,high_activation,congruent,correct,654
sub-03,20,high_activation,incongruent,correct,412
sub-03,21,high_activation,congruent,correct,426
sub-03,22,high_activation,congruent,correct,356
sub-03,23,high_activation,incongruent,correct,636
sub-03,24,high_activation,congruent,correct,438
sub-03,25,high_activation,congruent,correct,422
sub-03,26,high_activation,incongruent,correct,378
sub-03,27,high_activation,congruent,correct,500
sub-03,28,high_activation,incongruent,correct,662
sub-03,29,high_activation,incongruent,correct,336
sub-03,30,high_activation,congruent,correct,572
sub-03,31,high_activation,congruent,correct,414
sub-03,32,high_activation,incongruent,correct,792
sub-03,33,high_activation,incongruent,correct,554
sub-03,34,high_activation,congruent,correct,484
sub-03,35,high_activation,incongruent,correct,482
sub-03,36,high_activation,congruent,correct,684
sub-03,37,high_activation,incongruent,correct,614
sub-03,38,high_activation,congruent,correct,550
sub-03,39,high_activation,congruent,correct,466
sub-03,40,high_activation,incongruent,correct,518
sub-03,41,high_activation,congruent,correct,364
sub-03,42,high_activation,congruent,correct,276
sub-03,43,high_activation,incongruent,correct,458
sub-03,44,high_activation,incongruent,correct,386
sub-03,45,high_activation,incongruent,correct,504
sub-03,46,high_activation,congruent,correct,488
sub-03,47,high_activation,congruent,correct,476
sub-03,48,high_activation,congruent,correct,394
sub-03,49,high_activation,congruent,correct,524
sub-03,50,high_activation,incongruent,correct,362
sub-03,51,high_activation,congruent,correct,484
sub-03,52,high_activation,incongruent,correct,524
sub-03,53,high_activation,congruent,correct,322
sub-03,54,high_activation,incongruent,correct,366
sub-03,55,high_activation,congruent,correct,458
sub-03,56,high_activation,incongruent,correct,370
sub-03,57,high_activation,congruent,correct,468
sub-03,58,high_activation,incongruent,correct,390
sub-03,59,high_activation,congruent,correct,442
sub-03,60,high_activation,congruent,correct,703
sub-03,61,high_activation,congruent,correct,448
sub-03,62,high_activation,incongruent,correct,580
sub-03,63,high_activation,congruent,correct,508
sub-03,64,high_activation,congruent,correct,404
sub-03,65,high_activation,congruent,correct,366
sub-03,66,high_activation,incongruent,correct,586
sub-03,67,high_activation,congruent,correct,498
sub-03,68,high_activation,congruent,correct,446
sub-03,69,high_activation,incongruent,correct,516
sub-03,70,high_activation,incongruent,correct,342
sub-03,71,high_activation,congruent,correct,448
sub-03,72,high_activation,congruent,correct,356
sub-03,73,high_activation,incongruent,correct,438
sub-03,74,high_activation,incongruent,correct,486
sub-03,75,high_activation,congruent,correct,558
sub-03,76,high_activation,incongruent,correct,406
sub-03,77,high_activation,congruent,correct,532
sub-03,78,high_activation,incongruent,correct,386
sub-03,79,high_activation,incongruent,correct,390
sub-03,80,high_activation,incongruent,correct,316
sub-03,81,high_activation,congruent,correct,364
sub-03,82,high_activation,congruent,correct,400
sub-03,83,high_activation,incongruent,correct,500
sub-03,84,high_activation,incongruent,correct,384
sub-03,85,high_activation,incongruent,correct,538
sub-03,86,high_activation,incongruent,correct,478
sub-03,87,high_activation,congruent,correct,574
sub-03,88,high_activation,congruent,correct,422
sub-03,89,high_activation,congruent,correct,588
sub-03,90,high_activation,congruent,correct,524
sub-03,91,high_activation,congruent,correct,365
sub-03,92,high_activation,congruent,correct,396
sub-03,93,high_activation,congruent,correct,330
sub-03,94,high_activation,congruent,correct,312
sub-03,95,high_activation,congruent,correct,590
sub-03,96,high_activation,incongruent,correct,538
sub-03,97,high_activation,congruent,correct,778
sub-03,98,high_activation,incongruent,correct,540
sub-03,99,high_activation,congruent,correct,406
sub-03,100,high_activation,incongruent,correct,422
sub-03,101,high_activation,congruent,correct,624
sub-03,102,high_activation,incongruent,correct,472
sub-03,103,high_activation,congruent,correct,568
sub-03,104,high_activation,congruent,correct,336
sub-03,105,high_activation,incongruent,correct,496
sub-03,106,high_activation,incongruent,correct,372
sub-03,107,high_activation,incongruent,correct,494
sub-03,108,high_activation,congruent,correct,681
sub-03,109,high_activation,congruent,correct,504
sub-03,110,high_activation,incongruent,correct,604
sub-03,111,high_activation,incongruent,correct,500
sub-03,112,high_activation,incongruent,,
sub-03,113,high_activation,incongruent,correct,554
sub-03,114,high_activation,incongruent,,
sub-03,115,high_activation,congruent,correct,548
sub-03,116,high_activation,congruent,correct,394
sub-03,117,high_activation,incongruent,correct,704
sub-03,118,high_activation,incongruent,correct,634
sub-03,119,high_activation,incongruent,correct,510
sub-03,120,high_activation,incongruent,correct,414
sub-03,121,high_activation,incongruent,correct,778
sub-03,122,high_activation,congruent,correct,374
sub-03,123,high_activation,congruent,correct,458
sub-03,124,high_activation,congruent,correct,458
sub-03,125,high_activation,congruent,correct,434
sub-03,126,high_activation,incongruent,correct,498
sub-03,127,high_activation,incongruent,correct,610
sub-03,128,high_activation,congruent,correct,514
sub-03,129,high_activation,incongruent,correct,376
sub-03,130,high_activation,incongruent,correct,458
sub-03,131,high_activation,congruent,correct,520
sub-03,132,high_activation,incongruent,correct,514
sub-03,133,high_activation,incongruent,correct,590
sub-03,134,high_activation,incongruent,correct,510
sub-03,135,high_activation,incongruent,correct,428
sub-03,136,high_activation,incongruent,correct,446
sub-03,137,high_activation,congruent,correct,536
sub-03,138,high_activation,congruent,correct,626
sub-03,139,high_activation,congruent,correct,292
sub-03,140,high_activation,congruent,correct,612
sub-03,141,high_activation,congruent,correct,428
sub-03,142,high_activation,incongruent,correct,700
sub-03,143,high_activation,incongruent,correct,392
sub-03,144,high_activation,congruent,correct,536
sub-03,145,high_activation,congruent,correct,476
sub-03,146,high_activation,incongruent,correct,540
sub-03,147,high_activation,congruent,correct,438
sub-03,148,high_activation,incongruent,correct,484
sub-03,149,high_activation,incongruent,correct,418
sub-03,150,high_activation,congruent,correct,596
sub-03,151,high_activation,incongruent,correct,562
sub-03,152,high_activation,incongruent,correct,567
sub-03,153,high_activation,congruent,correct,546
sub-03,154,high_activation,congruent,,
sub-03,155,high_activation,incongruent,incorrect,756
sub-03,156,high_activation,congruent,,
sub-03,157,high_activation,congruent,correct,652
sub-03,158,high_activation,incongruent,correct,494
sub-03,159,high_activation,incongruent,correct,661
sub-03,160,high_activation,congruent,correct,488
sub-03,161,high_activation,incongruent,correct,798
sub-03,162,high_activation,congruent,correct,538
sub-03,163,high_activation,congruent,correct,690
sub-03,164,high_activation,congruent,correct,574
sub-03,165,high_activation,congruent,correct,826
sub-03,166,high_activation,congruent,correct,706
sub-03,167,high_activation,incongruent,correct,602
sub-03,168,high_activation,incongruent,correct,602
sub-03,169,high_activation,congruent,correct,616
sub-03,170,high_activation,incongruent,correct,528
sub-03,171,high_activation,incongruent,correct,440
sub-03,172,high_activation,congruent,correct,524
sub-03,173,high_activation,incongruent,,
sub-03,174,high_activation,congruent,correct,508
sub-03,175,high_activation,congruent,correct,530
sub-03,176,high_activation,incongruent,correct,636
sub-03,177,high_activation,incongruent,correct,404
sub-03,178,high_activation,incongruent,correct,560
sub-03,179,high_activation,incongruent,correct,520
sub-03,180,high_activation,incongruent,,
sub-03,181,high_activation,congruent,correct,386
sub-03,182,high_activation,congruent,correct,1140
sub-03,183,high_activation,congruent,correct,458
sub-03,184,high_activation,congruent,correct,416
sub-03,185,high_activation,incongruent,correct,586
sub-03,186,high_activation,congruent,correct,488
sub-03,187,high_activation,incongruent,correct,533
sub-03,188,high_activation,incongruent,correct,580
sub-03,189,high_activation,incongruent,correct,602
sub-03,190,high_activation,incongruent,correct,434
sub-03,191,high_activation,incongruent,correct,674
sub-03,192,high_activation,congruent,correct,476
sub-03,193,high_activation,congruent,correct,532
sub-03,194,high_activation,incongruent,correct,634
sub-03,195,high_activation,incongruent,correct,634
sub-03,196,high_activation,incongruent,correct,430
sub-03,197,high_activation,incongruent,correct,526
sub-03,198,high_activation,incongruent,correct,556
sub-03,199,high_activation,incongruent,correct,518
sub-03,200,high_activation,congruent,correct,396
sub-03,201,high_activation,incongruent,correct,492
sub-03,202,high_activation,incongruent,correct,412
sub-03,203,high_activation,congruent,correct,412
sub-03,204,high_activation,incongruent,correct,482
sub-03,205,high_activation,incongruent,correct,932
sub-03,206,high_activation,incongruent,correct,410
sub-03,207,high_activation,congruent,correct,626
sub-03,208,high_activation,incongruent,correct,818
sub-03,209,high_activation,incongruent,correct,424
sub-03,210,high_activation,congruent,correct,533
sub-03,211,high_activation,incongruent,correct,444
sub-03,212,high_activation,incongruent,correct,390
sub-03,213,high_activation,incongruent,correct,464
sub-03,214,high_activation,congruent,correct,374
sub-03,215,high_activation,congruent,correct,408
sub-03,216,high_activation,incongruent,correct,460
sub-03,217,high_activation,congruent,correct,384
sub-03,218,high_activation,congruent,correct,468
sub-03,219,high_activation,incongruent,correct,458
sub-03,220,high_activation,congruent,correct,522
sub-03,221,high_activation,incongruent,correct,338
sub-03,222,high_activation,congruent,correct,412
sub-03,223,high_activation,incongruent,correct,436
sub-03,224,high_activation,congruent,correct,522
sub-03,225,high_activation,congruent,correct,668
sub-03,226,high_activation,incongruent,correct,298
sub-03,227,high_activation,incongruent,correct,440
sub-03,228,high_activation,incongruent,correct,382
sub-03,229,high_activation,incongruent,correct,310
sub-03,230,high_activation,congruent,correct,500
sub-03,231,high_activation,congruent,correct,404
sub-03,232,high_activation,congruent,correct,540
sub-03,233,high_activation,congruent,correct,382
sub-03,234,high_activation,incongruent,correct,574
sub-03,235,high_activation,incongruent,correct,400
sub-03,236,high_activation,congruent,correct,756
sub-03,237,high_activation,congruent,correct,416
sub-03,238,high_activation,incongruent,correct,618
sub-03,239,high_activation,congruent,correct,480
sub-03,240,high_activation,congruent,correct,688
sub-03,241,high_activation,incongruent,correct,402
sub-03,242,high_activation,congruent,correct,536
sub-03,243,high_activation,incongruent,correct,302
sub-03,244,high_activation,incongruent,correct,342
sub-03,245,high_activation,incongruent,correct,428
sub-03,246,high_activation,congruent,correct,466
sub-03,247,high_activation,incongruent,correct,592
sub-03,248,high_activation,congruent,,
sub-03,249,high_activation,incongruent,correct,424
sub-03,250,high_activation,congruent,correct,434
sub-03,251,high_activation,congruent,correct,336
sub-03,252,high_activation,congruent,correct,452
sub-03,253,high_activation,incongruent,correct,324
sub-03,254,high_activation,congruent,correct,524
sub-03,255,high_activation,incongruent,correct,526
sub-03,256,high_activation,congruent,correct,518
sub-03,257,high_activation,incongruent,correct,670
sub-03,258,high_activation,congruent,correct,582
sub-03,259,high_activation,congruent,correct,474
sub-03,260,high_activation,incongruent,correct,326
sub-03,261,high_activation,congruent,correct,390
sub-03,262,high_activation,congruent,correct,442
sub-03,263,high_activation,incongruent,correct,544
sub-03,264,high_activation,incongruent,correct,470
sub-03,265,high_activation,congruent,correct,404
sub-03,266,high_activation,congruent,correct,508
sub-03,267,high_activation,incongruent,correct,366
sub-03,268,high_activation,incongruent,correct,502
sub-03,269,high_activation,incongruent,correct,368
sub-03,270,high_activation,incongruent,correct,612
sub-03,271,high_activation,congruent,correct,356
sub-03,272,high_activation,incongruent,correct,460
sub-03,273,high_activation,congruent,correct,532
sub-03,274,high_activation,congruent,correct,378
sub-03,275,high_activation,congruent,correct,642
sub-03,276,high_activation,congruent,correct,498
sub-03,277,high_activation,congruent,correct,420
sub-03,278,high_activation,congruent,correct,448
sub-03,279,high_activation,congruent,correct,450
sub-03,280,high_activation,incongruent,correct,338
sub-03,281,high_activation,congruent,,
sub-03,282,high_activation,congruent,,
sub-03,283,high_activation,congruent,correct,724
sub-03,284,high_activation,congruent,correct,506
sub-03,285,high_activation,incongruent,correct,316
sub-03,286,high_activation,incongruent,correct,500
sub-03,287,high_activation,congruent,correct,453
sub-03,288,high_activation,incongruent,correct,652
sub-03,289,high_activation,congruent,correct,268
sub-03,290,high_activation,incongruent,correct,484
sub-03,291,high_activation,congruent,correct,462
sub-03,292,high_activation,congruent,correct,420
sub-03,293,high_activation,congruent,correct,488
sub-03,294,high_activation,congruent,correct,478
sub-03,295,high_activation,congruent,correct,462
sub-03,296,high_activation,congruent,correct,368
sub-03,297,high_activation,congruent,correct,448
sub-03,298,high_activation,incongruent,correct,542
sub-03,299,high_activation,incongruent,correct,366
sub-03,300,high_activation,incongruent,correct,638
sub-03,301,high_activation,incongruent,correct,280
sub-03,302,high_activation,congruent,correct,590
sub-03,303,high_activation,congruent,correct,628
sub-03,304,high_activation,incongruent,correct,426
sub-03,305,high_activation,congruent,correct,470
sub-03,306,high_activation,congruent,correct,560
sub-03,307,high_activation,incongruent,correct,492
sub-03,308,high_activation,congruent,correct,596
sub-03,309,high_activation,incongruent,correct,518
sub-03,310,high_activation,congruent,correct,356
sub-03,311,high_activation,incongruent,correct,604
sub-03,312,high_activation,congruent,correct,330
sub-03,313,high_activation,congruent,correct,536
sub-03,314,high_activation,congruent,correct,462
sub-03,315,high_activation,incongruent,correct,556
sub-03,316,high_activation,incongruent,correct,448
sub-03,317,high_activation,congruent,correct,436
sub-03,318,high_activation,incongruent,correct,268
sub-03,319,high_activation,incongruent,correct,382
sub-03,320,high_activation,congruent,correct,336
sub-03,321,high_activation,congruent,correct,348
sub-03,322,high_activation,incongruent,correct,532
sub-03,323,high_activation,congruent,correct,448
sub-03,324,high_activation,incongruent,correct,396
sub-03,325,high_activation,congruent,correct,552
sub-03,326,high_activation,congruent,correct,598
sub-03,327,high_activation,congruent,correct,442
sub-03,328,high_activation,congruent,correct,502
sub-03,329,high_activation,congruent,correct,542
sub-03,330,high_activation,incongruent,correct,658
sub-03,331,high_activation,congruent,correct,514
sub-03,332,high_activation,congruent,correct,306
sub-03,333,high_activation,congruent,correct,594
sub-03,334,high_activation,congruent,correct,504
sub-03,335,high_activation,congruent,correct,562
sub-03,336,high_activation,congruent,correct,962
sub-03,337,high_activation,incongruent,correct,390
sub-03,338,high_activation,congruent,correct,300
sub-03,339,high_activation,incongruent,correct,590
sub-03,340,high_activation,incongruent,correct,484
sub-03,341,high_activation,congruent,correct,446
sub-03,342,high_activation,congruent,correct,632
sub-03,343,high_activation,congruent,correct,452
sub-03,344,high_activation,incongruent,correct,374
sub-03,345,high_activation,incongruent,correct,560
sub-03,346,high_activation,incongruent,correct,432
sub-03,347,high_activation,congruent,correct,414
sub-03,348,high_activation,incongruent,correct,484
sub-03,349,high_activation,incongruent,correct,452
sub-03,350,high_activation,congruent,correct,590
sub-03,351,high_activation,incongruent,correct,458
sub-03,352,high_activation,incongruent,correct,422
sub-03,353,high_activation,incongruent,correct,398
sub-03,354,high_activation,congruent,correct,264
sub-03,355,high_activation,congruent,,
sub-03,356,high_activation,incongruent,correct,388
sub-03,357,high_activation,incongruent,correct,500
sub-03,358,high_activation,congruent,correct,490
sub-03,359,high_activation,incongruent,correct,350
sub-03,360,high_activation,congruent,correct,384
sub-03,361,high_activation,congruent,correct,464
sub-03,362,high_activation,congruent,correct,360
sub-03,363,high_activation,congruent,correct,348
sub-03,364,high_activation,congruent,correct,350
sub-03,365,high_activation,congruent,correct,366
sub-03,366,high_activation,congruent,correct,388
sub-03,367,high_activation,congruent,correct,552
sub-03,368,high_activation,congruent,correct,470
sub-03,369,high_activation,congruent,correct,434
sub-03,370,high_activation,incongruent,correct,504
sub-03,371,high_activation,congruent,correct,414
sub-03,372,high_activation,congruent,correct,322
sub-03,373,high_activation,congruent,correct,555
sub-03,374,high_activation,incongruent,correct,546
sub-03,375,high_activation,congruent,correct,314
sub-03,376,high_activation,congruent,correct,306
sub-03,377,high_activation,incongruent,correct,824
sub-03,378,high_activation,incongruent,incorrect,292
sub-03,379,high_activation,incongruent,correct,544
sub-03,380,high_activation,congruent,correct,238
sub-03,381,high_activation,congruent,correct,288
sub-03,382,high_activation,incongruent,correct,470
sub-03,383,high_activation,incongruent,correct,334
sub-03,384,high_activation,congruent,correct,396
sub-03,385,high_activation,congruent,correct,294
sub-03,386,high_activation,incongruent,correct,482
sub-03,387,high_activation,incongruent,correct,498
sub-03,388,high_activation,congruent,correct,322
sub-03,389,high_activation,congruent,,
sub-03,390,high_activation,congruent,correct,410
sub-03,391,high_activation,incongruent,correct,684
sub-03,392,high_activation,incongruent,correct,390
sub-03,393,high_activation,incongruent,correct,416
sub-03,394,high_activation,congruent,correct,458
sub-03,395,high_activation,incongruent,correct,488
sub-03,396,high_activation,incongruent,correct,332
sub-03,397,high_activation,congruent,correct,470
sub-03,398,high_activation,congruent,correct,530
sub-03,399,high_activation,incongruent,correct,406
sub-03,400,high_activation,congruent,correct,504
sub-03,401,high_activation,incongruent,correct,430
sub-03,402,high_activation,incongruent,correct,500
sub-03,403,high_activation,incongruent,correct,442
sub-03,404,high_activation,incongruent,,
sub-03,405,high_activation,incongruent,,
sub-03,406,high_activation,incongruent,correct,486
sub-03,407,high_activation,congruent,,
sub-03,408,high_activation,incongruent,correct,550
sub-03,409,high_activation,congruent,correct,568
sub-03,410,high_activation,incongruent,correct,544
sub-03,411,high_activation,congruent,correct,464
sub-03,412,high_activation,incongruent,correct,564
sub-03,413,high_activation,incongruent,correct,426
sub-03,414,high_activation,congruent,correct,420
sub-03,415,high_activation,incongruent,correct,334
sub-03,416,high_activation,incongruent,correct,390
sub-03,417,high_activation,incongruent,correct,312
sub-03,418,high_activation,incongruent,correct,416
sub-03,419,high_activation,incongruent,correct,468
sub-03,420,high_activation,congruent,correct,466
sub-03,421,high_activation,congruent,correct,562
sub-03,422,high_activation,incongruent,correct,532
sub-03,423,high_activation,incongruent,correct,372
sub-03,424,high_activation,incongruent,correct,262
sub-03,425,high_activation,incongruent,correct,468
sub-03,426,high_activation,incongruent,correct,340
sub-03,427,high_activation,congruent,correct,306
sub-03,428,high_activation,incongruent,correct,308
sub-03,429,high_activation,incongruent,correct,416
sub-03,430,high_activation,incongruent,correct,734
sub-03,431,high_activation,congruent,correct,446
sub-03,432,high_activation,incongruent,correct,584
sub-03,433,high_activation,congruent,correct,438
sub-03,434,high_activation,incongruent,correct,294
sub-03,435,high_activation,incongruent,correct,743
sub-03,436,high_activation,incongruent,correct,372
sub-03,437,high_activation,incongruent,correct,420
sub-03,438,high_activation,incongruent,correct,546
sub-03,439,high_activation,congruent,correct,477
sub-03,440,high_activation,incongruent,correct,526
sub-03,441,high_activation,incongruent,correct,390
sub-03,442,high_activation,incongruent,correct,474
sub-03,443,high_activation,congruent,correct,452
sub-03,444,high_activation,congruent,correct,602
sub-03,445,high_activation,congruent,correct,430
sub-03,446,high_activation,incongruent,correct,406
sub-03,447,high_activation,incongruent,correct,288
sub-03,448,high_activation,incongruent,correct,532
sub-03,449,high_activation,incongruent,correct,458
sub-03,450,high_activation,incongruent,correct,358
sub-03,451,high_activation,congruent,correct,370
sub-03,452,high_activation,incongruent,correct,428
sub-03,453,high_activation,incongruent,correct,364
sub-03,454,high_activation,congruent,correct,464
sub-03,455,high_activation,incongruent,correct,494
sub-03,456,high_activation,incongruent,correct,40
sub-03,457,high_activation,incongruent,correct,432
sub-03,458,high_activation,incongruent,correct,326
sub-03,459,high_activation,congruent,correct,374
sub-03,460,high_activation,incongruent,correct,386
sub-03,461,high_activation,congruent,correct,460
sub-03,462,high_activation,incongruent,correct,510
sub-03,463,high_activation,incongruent,correct,396
sub-03,464,high_activation,incongruent,correct,518
sub-03,465,high_activation,incongruent,correct,400
sub-03,466,high_activation,congruent,correct,516
sub-03,467,high_activation,congruent,correct,386
sub-03,468,high_activation,incongruent,correct,612
sub-03,469,high_activation,congruent,correct,256
sub-03,470,high_activation,congruent,correct,448
sub-03,471,high_activation,congruent,correct,338
sub-03,472,high_activation,incongruent,correct,460
sub-03,473,high_activation,congruent,correct,442
sub-03,474,high_activation,incongruent,correct,284
sub-03,475,high_activation,incongruent,correct,412
sub-03,476,high_activation,incongruent,correct,470
sub-03,477,high_activation,congruent,correct,430
sub-03,478,high_activation,congruent,correct,260
sub-03,479,high_activation,incongruent,correct,478
sub-03,480,high_activation,incongruent,correct,304
sub-03,481,high_activation,incongruent,correct,260
sub-03,482,high_activation,incongruent,correct,448
sub-03,483,high_activation,incongruent,correct,366
sub-03,484,high_activation,congruent,correct,532
sub-03,485,high_activation,congruent,correct,448
sub-03,486,high_activation,congruent,correct,286
sub-03,487,high_activation,congruent,correct,526
sub-03,488,high_activation,incongruent,correct,290
sub-03,489,high_activation,congruent,correct,384
sub-03,490,high_activation,congruent,correct,484
sub-03,491,high_activation,incongruent,correct,566
sub-03,492,high_activation,incongruent,correct,466
sub-03,493,high_activation,incongruent,correct,516
sub-03,494,high_activation,incongruent,correct,440
sub-03,495,high_activation,congruent,correct,470
sub-03,496,high_activation,incongruent,correct,456
sub-03,497,high_activation,congruent,correct,460
sub-03,498,high_activation,congruent,correct,378
sub-03,499,high_activation,congruent,correct,744
sub-03,500,high_activation,incongruent,correct,666
sub-03,501,high_activation,incongruent,correct,586
sub-03,502,high_activation,congruent,correct,510
sub-03,503,high_activation,congruent,correct,470
sub-03,504,high_activation,incongruent,correct,534
sub-03,505,high_activation,congruent,correct,598
sub-03,506,high_activation,congruent,correct,380
sub-03,507,high_activation,congruent,correct,448
sub-03,508,high_activation,congruent,correct,444
sub-03,509,high_activation,congruent,correct,472
sub-03,510,high_activation,congruent,correct,382
sub-03,511,high_activation,incongruent,correct,728
sub-03,512,high_activation,congruent,correct,390
sub-03,513,high_activation,incongruent,correct,436
sub-03,514,high_activation,incongruent,correct,342
sub-03,515,high_activation,incongruent,correct,366
sub-03,516,high_activation,incongruent,correct,256
sub-03,517,high_activation,congruent,correct,414
sub-03,518,high_activation,congruent,correct,430
sub-03,519,high_activation,congruent,correct,388
sub-03,520,high_activation,incongruent,correct,512
sub-03,521,high_activation,incongruent,correct,484
sub-03,522,high_activation,congruent,correct,386
sub-03,523,high_activation,congruent,correct,307
sub-03,524,high_activation,incongruent,correct,468
sub-03,525,high_activation,incongruent,correct,306
sub-03,526,high_activation,congruent,correct,458
sub-03,527,high_activation,congruent,correct,390
sub-03,528,high_activation,incongruent,correct,414
sub-03,529,high_activation,congruent,correct,356
sub-03,530,high_activation,congruent,correct,408
sub-03,531,high_activation,congruent,correct,438
sub-03,532,high_activation,congruent,correct,478
sub-03,533,high_activation,incongruent,correct,470
sub-03,534,high_activation,congruent,correct,452
sub-03,535,high_activation,incongruent,correct,306
sub-03,536,high_activation,incongruent,correct,500
sub-03,537,high_activation,congruent,correct,478
sub-03,538,high_activation,incongruent,correct,420
sub-03,539,high_activation,incongruent,correct,450
sub-03,540,high_activation,incongruent,correct,472
sub-03,541,high_activation,incongruent,correct,360
sub-03,542,high_activation,congruent,correct,478
sub-03,543,high_activation,congruent,correct,450
sub-03,544,high_activation,incongruent,correct,398
sub-03,545,high_activation,congruent,correct,342
sub-03,546,high_activation,congruent,correct,444
sub-03,547,high_activation,incongruent,correct,398
sub-03,548,high_activation,incongruent,correct,272
sub-03,549,high_activation,congruent,correct,610
sub-03,550,high_activation,incongruent,correct,278
sub-03,551,high_activation,congruent,correct,314
sub-03,552,high_activation,incongruent,correct,430
sub-03,553,high_activation,congruent,correct,308
sub-03,554,high_activation,incongruent,correct,282
sub-03,555,high_activation,congruent,correct,434
sub-03,556,high_activation,incongruent,correct,311
sub-03,557,high_activation,congruent,correct,518
sub-03,558,high_activation,congruent,correct,296
sub-03,559,high_activation,congruent,correct,458
sub-03,560,high_activation,incongruent,correct,552
sub-03,561,high_activation,congruent,correct,434
sub-03,562,high_activation,incongruent,correct,366
sub-03,563,high_activation,incongruent,correct,554
sub-03,564,high_activation,congruent,correct,392
sub-03,565,high_activation,congruent,correct,504
sub-03,566,high_activation,incongruent,correct,554
sub-03,567,high_activation,incongruent,correct,514
sub-03,568,high_activation,incongruent,incorrect,642
sub-03,569,high_activation,incongruent,correct,478
sub-03,570,high_activation,incongruent,correct,300
sub-03,571,high_activation,incongruent,correct,478
sub-03,572,high_activation,incongruent,correct,640
sub-03,573,high_activation,incongruent,correct,424
sub-03,574,high_activation,congruent,correct,462
sub-03,575,high_activation,congruent,correct,408
sub-03,576,high_activation,incongruent,correct,532
sub-03,577,high_activation,congruent,correct,430
sub-03,578,high_activation,congruent,correct,408
sub-03,579,high_activation,incongruent,correct,400
sub-03,580,high_activation,incongruent,correct,380
sub-03,581,high_activation,congruent,correct,478
sub-03,582,high_activation,incongruent,correct,432
sub-03,583,high_activation,congruent,correct,406
sub-03,584,high_activation,incongruent,correct,562
sub-03,585,high_activation,incongruent,correct,666
sub-03,586,high_activation,congruent,correct,375
sub-03,587,high_activation,congruent,correct,590
sub-03,588,high_activation,congruent,correct,474
sub-03,589,high_activation,incongruent,correct,518
sub-03,590,high_activation,incongruent,correct,482
sub-03,591,high_activation,incongruent,correct,494
sub-03,592,high_activation,congruent,correct,390
sub-03,593,high_activation,incongruent,correct,682
sub-03,594,high_activation,congruent,correct,430
sub-03,595,high_activation,incongruent,correct,676
sub-03,596,high_activation,incongruent,correct,364
sub-03,597,high_activation,congruent,correct,428
sub-03,598,high_activation,congruent,correct,428
sub-03,599,high_activation,incongruent,correct,676
sub-03,600,high_activation,incongruent,correct,384
sub-03,601,high_activation,congruent,correct,592
sub-03,602,high_activation,incongruent,correct,474
sub-03,603,high_activation,incongruent,correct,446
sub-03,604,high_activation,congruent,correct,404
sub-03,605,high_activation,congruent,correct,542
sub-03,606,high_activation,congruent,correct,426
sub-03,607,high_activation,congruent,correct,526
sub-03,608,high_activation,incongruent,correct,488
sub-03,609,high_activation,incongruent,correct,344
sub-03,610,high_activation,incongruent,correct,440
sub-03,611,high_activation,congruent,correct,278
sub-03,612,high_activation,incongruent,correct,602
sub-03,613,high_activation,incongruent,correct,632
sub-03,614,high_activation,incongruent,correct,602
sub-03,615,high_activation,congruent,correct,340
sub-03,616,high_activation,incongruent,correct,402
sub-03,617,high_activation,incongruent,correct,764
sub-03,618,high_activation,congruent,correct,276
sub-03,619,high_activation,congruent,correct,356
sub-03,620,high_activation,incongruent,correct,608
sub-03,621,high_activation,congruent,correct,354
sub-03,622,high_activation,congruent,correct,526
sub-03,623,high_activation,incongruent,correct,508
sub-03,624,high_activation,congruent,correct,468
sub-03,625,high_activation,congruent,correct,344
sub-03,626,high_activation,congruent,correct,440
sub-03,627,high_activation,incongruent,correct,526
sub-03,628,high_activation,congruent,correct,320
sub-03,629,high_activation,incongruent,correct,450
sub-03,630,high_activation,congruent,correct,426
sub-03,631,high_activation,congruent,correct,442
sub-03,632,high_activation,incongruent,correct,570
sub-03,633,high_activation,incongruent,correct,504
sub-03,634,high_activation,incongruent,correct,412
sub-03,635,high_activation,incongruent,correct,422
sub-03,636,high_activation,incongruent,correct,358
sub-03,637,high_activation,incongruent,correct,506
sub-03,638,high_activation,incongruent,incorrect,232
sub-03,639,high_activation,incongruent,correct,586
sub-03,640,high_activation,incongruent,correct,499
sub-03,641,high_activation,incongruent,correct,274
sub-03,642,high_activation,incongruent,correct,564
sub-03,643,high_activation,incongruent,correct,344
sub-03,644,high_activation,congruent,correct,534
sub-03,645,high_activation,congruent,correct,448
sub-03,646,high_activation,congruent,correct,506
sub-03,647,high_activation,congruent,correct,512
sub-03,648,high_activation,congruent,correct,530
sub-03,649,high_activation,congruent,correct,364
sub-03,650,high_activation,congruent,correct,452
sub-03,651,high_activation,congruent,correct,476
sub-03,652,high_activation,incongruent,correct,380
sub-03,653,high_activation,incongruent,correct,528
sub-03,654,high_activation,congruent,correct,644
sub-03,655,high_activation,incongruent,correct,584
sub-03,656,high_activation,congruent,correct,436
sub-03,657,high_activation,congruent,correct,752
sub-03,658,high_activation,incongruent,correct,454
sub-03,659,high_activation,incongruent,,
sub-03,660,high_activation,incongruent,correct,536
sub-03,661,high_activation,congruent,incorrect,1138
sub-03,662,high_activation,incongruent,correct,534
sub-03,663,high_activation,congruent,correct,514
sub-03,664,high_activation,incongruent,correct,614
sub-03,665,high_activation,incongruent,correct,518
sub-03,666,high_activation,congruent,,
sub-03,667,high_activation,congruent,correct,682
sub-03,668,high_activation,incongruent,,
sub-03,669,high_activation,incongruent,correct,554
sub-03,670,high_activation,congruent,correct,718
sub-03,671,high_activation,congruent,correct,512
sub-03,672,high_activation,incongruent,correct,588
sub-03,673,high_activation,incongruent,correct,506
sub-03,674,high_activation,congruent,correct,574
sub-03,675,high_activation,incongruent,correct,442
sub-03,676,high_activation,congruent,,
sub-03,677,high_activation,incongruent,correct,476
sub-03,678,high_activation,incongruent,correct,462
sub-03,679,high_activation,incongruent,correct,451
sub-03,680,high_activation,congruent,correct,414
sub-03,681,high_activation,congruent,correct,426
sub-03,682,high_activation,congruent,correct,414
sub-03,683,high_activation,incongruent,correct,530
sub-03,684,high_activation,incongruent,correct,434
sub-03,685,high_activation,incongruent,correct,442
sub-03,686,high_activation,incongruent,correct,472
sub-03,687,high_activation,incongruent,correct,502
sub-03,688,high_activation,congruent,correct,508
sub-03,689,high_activation,incongruent,correct,454
sub-03,690,high_activation,congruent,correct,312
sub-03,691,high_activation,incongruent,correct,606
sub-03,692,high_activation,congruent,correct,684
sub-03,693,high_activation,incongruent,incorrect,300
sub-03,694,high_activation,incongruent,correct,472
sub-03,695,high_activation,incongruent,correct,434
sub-03,696,high_activation,incongruent,correct,420
sub-03,697,high_activation,congruent,correct,472
sub-03,698,high_activation,congruent,correct,630
sub-03,699,high_activation,congruent,correct,298
sub-03,700,high_activation,congruent,correct,410
sub-03,701,high_activation,incongruent,correct,476
sub-03,702,high_activation,congruent,correct,344
sub-03,703,high_activation,congruent,correct,450
sub-03,704,high_activation,incongruent,correct,410
sub-03,705,high_activation,congruent,correct,448
sub-03,706,high_activation,incongruent,correct,438
sub-03,707,high_activation,congruent,correct,350
sub-03,708,high_activation,incongruent,correct,446
sub-03,709,high_activation,incongruent,correct,482
sub-03,710,high_activation,congruent,correct,424
sub-03,711,high_activation,congruent,correct,466
sub-03,712,high_activation,congruent,correct,392
sub-03,713,high_activation,incongruent,correct,492
sub-03,714,high_activation,congruent,correct,672
sub-03,715,high_activation,incongruent,correct,384
sub-03,716,high_activation,congruent,correct,648
sub-03,717,high_activation,congruent,correct,416
sub-03,718,high_activation,incongruent,correct,572
sub-03,719,high_activation,congruent,correct,310
sub-03,720,high_activation,congruent,correct,860
sub-03,721,high_activation,congruent,correct,612
sub-03,722,high_activation,congruent,correct,482
sub-03,723,high_activation,incongruent,correct,424
sub-03,724,high_activation,incongruent,correct,538
sub-03,725,high_activation,incongruent,correct,418
sub-03,726,high_activation,congruent,correct,712
sub-03,727,high_activation,incongruent,correct,514
sub-03,728,high_activation,incongruent,correct,448
sub-03,729,high_activation,congruent,correct,370
sub-03,730,high_activation,incongruent,correct,548
sub-03,731,high_activation,incongruent,correct,338
sub-03,732,high_activation,incongruent,correct,520
sub-03,733,high_activation,congruent,correct,376
sub-03,734,high_activation,incongruent,correct,388
sub-03,735,high_activation,incongruent,correct,460
sub-03,736,high_activation,congruent,correct,394
sub-03,737,high_activation,incongruent,correct,510
sub-03,738,high_activation,congruent,correct,428
sub-03,739,high_activation,congruent,correct,356
sub-03,740,high_activation,congruent,correct,420
sub-03,741,high_activation,incongruent,correct,491
sub-03,742,high_activation,incongruent,correct,582
sub-03,743,high_activation,incongruent,correct,414
sub-03,744,high_activation,congruent,correct,508
sub-03,745,high_activation,congruent,correct,546
sub-03,746,high_activation,congruent,correct,446
sub-03,747,high_activation,congruent,correct,522
sub-03,748,high_activation,incongruent,correct,356
sub-03,749,high_activation,incongruent,correct,386
sub-03,750,high_activation,congruent,correct,382
sub-03,751,high_activation,congruent,correct,492
sub-03,752,high_activation,congruent,correct,450
sub-03,753,high_activation,incongruent,correct,436
sub-03,754,high_activation,congruent,correct,666
sub-03,755,high_activation,congruent,correct,562
sub-03,756,high_activation,incongruent,correct,460
sub-03,757,high_activation,congruent,correct,450
sub-03,758,high_activation,congruent,correct,438
sub-03,759,high_activation,incongruent,correct,540
sub-03,760,high_activation,incongruent,correct,468
sub-03,761,high_activation,incongruent,correct,472
sub-03,762,high_activation,congruent,correct,506
sub-03,763,high_activation,congruent,correct,332
sub-03,764,high_activation,congruent,correct,492
sub-03,765,high_activation,incongruent,correct,404
sub-03,766,high_activation,congruent,correct,382
sub-03,767,high_activation,incongruent,correct,538
sub-03,768,high_activation,incongruent,correct,764
sub-03,769,high_activation,congruent,correct,472
sub-03,770,high_activation,incongruent,correct,332
sub-03,771,high_activation,incongruent,correct,494
sub-03,772,high_activation,congruent,correct,312
sub-03,773,high_activation,incongruent,correct,468
sub-03,774,high_activation,incongruent,correct,486
sub-03,775,high_activation,congruent,correct,586
sub-03,776,high_activation,congruent,incorrect,11
sub-03,777,high_activation,congruent,correct,460
sub-03,778,high_activation,incongruent,correct,634
sub-03,779,high_activation,incongruent,correct,370
sub-03,780,high_activation,congruent,correct,302
sub-03,781,high_activation,congruent,correct,510
sub-03,782,high_activation,incongruent,correct,412
sub-03,783,high_activation,incongruent,correct,422
sub-03,784,high_activation,congruent,correct,472
sub-03,785,high_activation,incongruent,correct,540
sub-03,786,high_activation,congruent,correct,388
sub-03,787,high_activation,incongruent,,
sub-03,788,high_activation,congruent,correct,586
sub-03,789,high_activation,incongruent,correct,342
sub-03,790,high_activation,incongruent,correct,464
sub-03,791,high_activation,incongruent,correct,368
sub-03,792,high_activation,congruent,correct,322
sub-03,1,low_activation,congruent,correct,419
sub-03,2,low_activation,congruent,correct,475
sub-03,3,low_activation,congruent,correct,526
sub-03,4,low_activation,incongruent,correct,632
sub-03,5,low_activation,congruent,correct,462
sub-03,6,low_activation,congruent,correct,368
sub-03,7,low_activation,incongruent,correct,459
sub-03,8,low_activation,incongruent,correct,636
sub-03,9,low_activation,congruent,correct,458
sub-03,10,low_activation,congruent,correct,356
sub-03,11,low_activation,congruent,correct,483
sub-03,12,low_activation,incongruent,correct,454
sub-03,13,low_activation,congruent,correct,461
sub-03,14,low_activation,congruent,correct,485
sub-03,15,low_activation,incongruent,correct,388
sub-03,16,low_activation,congruent,correct,485
sub-03,17,low_activation,incongruent,correct,490
sub-03,18,low_activation,congruent,correct,442
sub-03,19,low_activation,incongruent,correct,530
sub-03,20,low_activation,incongruent,correct,649
sub-03,21,low_activation,incongruent,correct,654
sub-03,22,low_activation,congruent,correct,521
sub-03,23,low_activation,incongruent,correct,642
sub-03,24,low_activation,incongruent,correct,543
sub-03,25,low_activation,incongruent,correct,493
sub-03,26,low_activation,incongruent,correct,569
sub-03,27,low_activation,congruent,correct,446
sub-03,28,low_activation,congruent,correct,406
sub-03,29,low_activation,incongruent,correct,458
sub-03,30,low_activation,incongruent,correct,526
sub-03,31,low_activation,incongruent,correct,455
sub-03,32,low_activation,incongruent,correct,489
sub-03,33,low_activation,incongruent,correct,438
sub-03,34,low_activation,congruent,correct,388
sub-03,35,low_activation,congruent,,
sub-03,36,low_activation,congruent,correct,456
sub-03,37,low_activation,congruent,correct,413
sub-03,38,low_activation,congruent,correct,553
sub-03,39,low_activation,incongruent,,
sub-03,40,low_activation,incongruent,correct,778
sub-03,41,low_activation,incongruent,,
sub-03,42,low_activation,congruent,correct,414
sub-03,43,low_activation,congruent,correct,480
sub-03,44,low_activation,congruent,correct,556
sub-03,45,low_activation,congruent,correct,484
sub-03,46,low_activation,incongruent,correct,463
sub-03,47,low_activation,congruent,correct,426
sub-03,48,low_activation,incongruent,correct,388
sub-03,49,low_activation,congruent,correct,299
sub-03,50,low_activation,congruent,correct,409
sub-03,51,low_activation,incongruent,correct,470
sub-03,52,low_activation,incongruent,correct,342
sub-03,53,low_activation,incongruent,correct,569
sub-03,54,low_activation,congruent,correct,559
sub-03,55,low_activation,congruent,correct,389
sub-03,56,low_activation,incongruent,correct,411
sub-03,57,low_activation,incongruent,correct,245
sub-03,58,low_activation,incongruent,correct,720
sub-03,59,low_activation,congruent,correct,404
sub-03,60,low_activation,congruent,correct,370
sub-03,61,low_activation,congruent,correct,369
sub-03,62,low_activation,incongruent,correct,286
sub-03,63,low_activation,incongruent,correct,350
sub-03,64,low_activation,congruent,correct,538
sub-03,65,low_activation,incongruent,correct,334
sub-03,66,low_activation,congruent,incorrect,270
sub-03,67,low_activation,congruent,correct,669
sub-03,68,low_activation,congruent,correct,376
sub-03,69,low_activation,congruent,correct,295
sub-03,70,low_activation,incongruent,correct,397
sub-03,71,low_activation,congruent,correct,728
sub-03,72,low_activation,congruent,correct,512
sub-03,73,low_activation,congruent,correct,257
sub-03,74,low_activation,incongruent,correct,465
sub-03,75,low_activation,incongruent,correct,460
sub-03,76,low_activation,incongruent,correct,433
sub-03,77,low_activation,incongruent,correct,512
sub-03,78,low_activation,congruent,correct,417
sub-03,79,low_activation,congruent,incorrect,901
sub-03,80,low_activation,incongruent,correct,494
sub-03,81,low_activation,congruent,correct,274
sub-03,82,low_activation,congruent,correct,497
sub-03,83,low_activation,incongruent,,
sub-03,84,low_activation,congruent,correct,452
sub-03,85,low_activation,congruent,correct,510
sub-03,86,low_activation,congruent,correct,541
sub-03,87,low_activation,incongruent,correct,594
sub-03,88,low_activation,incongruent,correct,835
sub-03,89,low_activation,incongruent,correct,580
sub-03,90,low_activation,congruent,correct,455
sub-03,91,low_activation,congruent,correct,558
sub-03,92,low_activation,incongruent,correct,536
sub-03,93,low_activation,incongruent,correct,549
sub-03,94,low_activation,congruent,correct,306
sub-03,95,low_activation,incongruent,correct,568
sub-03,96,low_activation,incongruent,correct,442
sub-03,97,low_activation,incongruent,correct,309
sub-03,98,low_activation,congruent,correct,317
sub-03,99,low_activation,congruent,correct,383
sub-03,100,low_activation,congruent,correct,566
sub-03,101,low_activation,congruent,correct,485
sub-03,102,low_activation,congruent,correct,465
sub-03,103,low_activation,incongruent,correct,478
sub-03,104,low_activation,incongruent,correct,469
sub-03,105,low_activation,congruent,correct,246
sub-03,106,low_activation,incongruent,correct,393
sub-03,107,low_activation,congruent,correct,340
sub-03,108,low_activation,congruent,correct,273
sub-03,109,low_activation,incongruent,correct,337
sub-03,110,low_activation,congruent,correct,298
sub-03,111,low_activation,incongruent,correct,630
sub-03,112,low_activation,incongruent,correct,401
sub-03,113,low_activation,incongruent,correct,437
sub-03,114,low_activation,congruent,correct,536
sub-03,115,low_activation,incongruent,correct,807
sub-03,116,low_activation,incongruent,correct,435
sub-03,117,low_activation,congruent,correct,256
sub-03,118,low_activation,congruent,correct,526
sub-03,119,low_activation,congruent,correct,440
sub-03,120,low_activation,congruent,correct,415
sub-03,121,low_activation,congruent,correct,522
sub-03,122,low_activation,congruent,,
sub-03,123,low_activation,incongruent,incorrect,424
sub-03,124,low_activation,congruent,correct,439
sub-03,125,low_activation,congruent,correct,484
sub-03,126,low_activation,incongruent,correct,416
sub-03,127,low_activation,congruent,correct,404
sub-03,128,low_activation,incongruent,correct,554
sub-03,129,low_activation,congruent,correct,562
sub-03,130,low_activation,congruent,correct,434
sub-03,131,low_activation,incongruent,correct,706
sub-03,132,low_activation,congruent,correct,506
sub-03,133,low_activation,incongruent,correct,526
sub-03,134,low_activation,congruent,correct,508
sub-03,135,low_activation,congruent,correct,542
sub-03,136,low_activation,congruent,correct,389
sub-03,137,low_activation,incongruent,correct,690
sub-03,138,low_activation,congruent,correct,470
sub-03,139,low_activation,congruent,correct,662
sub-03,140,low_activation,incongruent,correct,694
sub-03,141,low_activation,congruent,correct,579
sub-03,142,low_activation,congruent,correct,433
sub-03,143,low_activation,incongruent,correct,727
sub-03,144,low_activation,incongruent,correct,331
sub-03,145,low_activation,congruent,correct,528
sub-03,146,low_activation,congruent,correct,771
sub-03,147,low_activation,congruent,correct,478
sub-03,148,low_activation,incongruent,correct,568
sub-03,149,low_activation,congruent,correct,506
sub-03,150,low_activation,congruent,correct,512
sub-03,151,low_activation,incongruent,correct,435
sub-03,152,low_activation,incongruent,correct,506
sub-03,153,low_activation,congruent,correct,618
sub-03,154,low_activation,congruent,correct,474
sub-03,155,low_activation,congruent,correct,472
sub-03,156,low_activation,incongruent,correct,322
sub-03,157,low_activation,incongruent,correct,558
sub-03,158,low_activation,congruent,correct,590
sub-03,159,low_activation,congruent,correct,585
sub-03,160,low_activation,incongruent,correct,382
sub-03,161,low_activation,congruent,correct,440
sub-03,162,low_activation,congruent,correct,399
sub-03,163,low_activation,congruent,correct,416
sub-03,164,low_activation,congruent,correct,487
sub-03,165,low_activation,incongruent,correct,471
sub-03,166,low_activation,incongruent,correct,352
sub-03,167,low_activation,congruent,correct,278
sub-03,168,low_activation,congruent,correct,594
sub-03,169,low_activation,incongruent,correct,333
sub-03,170,low_activation,congruent,correct,537
sub-03,171,low_activation,incongruent,correct,443
sub-03,172,low_activation,congruent,correct,520
sub-03,173,low_activation,incongruent,correct,420
sub-03,174,low_activation,congruent,correct,522
sub-03,175,low_activation,incongruent,correct,454
sub-03,176,low_activation,incongruent,correct,583
sub-03,177,low_activation,congruent,correct,817
sub-03,178,low_activation,congruent,correct,475
sub-03,179,low_activation,incongruent,correct,429
sub-03,180,low_activation,congruent,correct,828
sub-03,181,low_activation,congruent,correct,431
sub-03,182,low_activation,incongruent,correct,608
sub-03,183,low_activation,congruent,correct,430
sub-03,184,low_activation,incongruent,correct,392
sub-03,185,low_activation,incongruent,correct,534
sub-03,186,low_activation,congruent,correct,11
sub-03,187,low_activation,congruent,correct,513
sub-03,188,low_activation,incongruent,correct,493
sub-03,189,low_activation,incongruent,correct,619
sub-03,190,low_activation,incongruent,correct,376
sub-03,191,low_activation,congruent,correct,498
sub-03,192,low_activation,incongruent,correct,599
sub-03,193,low_activation,congruent,,
sub-03,194,low_activation,incongruent,correct,384
sub-03,195,low_activation,congruent,correct,466
sub-03,196,low_activation,congruent,correct,316
sub-03,197,low_activation,congruent,correct,582
sub-03,198,low_activation,congruent,correct,404
sub-03,199,low_activation,incongruent,correct,447
sub-03,200,low_activation,incongruent,correct,269
sub-03,201,low_activation,congruent,correct,503
sub-03,202,low_activation,incongruent,correct,327
sub-03,203,low_activation,congruent,correct,305
sub-03,204,low_activation,incongruent,correct,536
sub-03,205,low_activation,incongruent,correct,540
sub-03,206,low_activation,congruent,correct,394
sub-03,207,low_activation,incongruent,correct,528
sub-03,208,low_activation,incongruent,correct,347
sub-03,209,low_activation,congruent,correct,462
sub-03,210,low_activation,incongruent,incorrect,291
sub-03,211,low_activation,incongruent,correct,599
sub-03,212,low_activation,incongruent,correct,547
sub-03,213,low_activation,congruent,correct,496
sub-03,214,low_activation,incongruent,correct,533
sub-03,215,low_activation,congruent,correct,403
sub-03,216,low_activation,congruent,incorrect,381
sub-03,217,low_activation,incongruent,correct,596
sub-03,218,low_activation,incongruent,correct,467
sub-03,219,low_activation,incongruent,correct,402
sub-03,220,low_activation,incongruent,correct,512
sub-03,221,low_activation,incongruent,correct,488
sub-03,222,low_activation,congruent,correct,447
sub-03,223,low_activation,congruent,correct,381
sub-03,224,low_activation,congruent,correct,541
sub-03,225,low_activation,congruent,correct,550
sub-03,226,low_activation,congruent,correct,466
sub-03,227,low_activation,incongruent,correct,372
sub-03,228,low_activation,congruent,correct,525
sub-03,229,low_activation,incongruent,correct,532
sub-03,230,low_activation,incongruent,correct,339
sub-03,231,low_activation,incongruent,correct,572
sub-03,232,low_activation,congruent,correct,570
sub-03,233,low_activation,congruent,correct,788
sub-03,234,low_activation,incongruent,correct,510
sub-03,235,low_activation,incongruent,correct,722
sub-03,236,low_activation,congruent,correct,445
sub-03,237,low_activation,congruent,correct,616
sub-03,238,low_activation,incongruent,correct,515
sub-03,239,low_activation,congruent,correct,408
sub-03,240,low_activation,incongruent,correct,502
sub-03,241,low_activation,congruent,correct,589
sub-03,242,low_activation,congruent,correct,490
sub-03,243,low_activation,congruent,correct,482
sub-03,244,low_activation,incongruent,correct,611
sub-03,245,low_activation,congruent,correct,507
sub-03,246,low_activation,incongruent,correct,430
sub-03,247,low_activation,incongruent,correct,471
sub-03,248,low_activation,congruent,correct,647
sub-03,249,low_activation,congruent,correct,301
sub-03,250,low_activation,congruent,correct,336
sub-03,251,low_activation,congruent,correct,672
sub-03,252,low_activation,congruent,correct,494
sub-03,253,low_activation,congruent,correct,410
sub-03,254,low_activation,congruent,correct,514
sub-03,255,low_activation,incongruent,correct,558
sub-03,256,low_activation,congruent,correct,768
sub-03,257,low_activation,congruent,correct,475
sub-03,258,low_activation,congruent,correct,583
sub-03,259,low_activation,congruent,correct,448
sub-03,260,low_activation,congruent,correct,492
sub-03,261,low_activation,congruent,incorrect,147
sub-03,262,low_activation,congruent,correct,296
sub-03,263,low_activation,congruent,correct,451
sub-03,264,low_activation,incongruent,correct,504
sub-03,265,low_activation,congruent,correct,1589
sub-03,266,low_activation,incongruent,correct,504
sub-03,267,low_activation,congruent,correct,553
sub-03,268,low_activation,incongruent,correct,336
sub-03,269,low_activation,incongruent,correct,482
sub-03,270,low_activation,incongruent,correct,467
sub-03,271,low_activation,congruent,correct,472
sub-03,272,low_activation,incongruent,correct,498
sub-03,273,low_activation,incongruent,correct,580
sub-03,274,low_activation,congruent,correct,470
sub-03,275,low_activation,congruent,correct,448
sub-03,276,low_activation,congruent,correct,563
sub-03,277,low_activation,congruent,correct,543
sub-03,278,low_activation,congruent,correct,532
sub-03,279,low_activation,congruent,correct,444
sub-03,280,low_activation,congruent,correct,556
sub-03,281,low_activation,incongruent,correct,611
sub-03,282,low_activation,incongruent,correct,414
sub-03,283,low_activation,congruent,correct,763
sub-03,284,low_activation,congruent,correct,665
sub-03,285,low_activation,incongruent,correct,507
sub-03,286,low_activation,congruent,correct,583
sub-03,287,low_activation,incongruent,correct,441
sub-03,288,low_activation,incongruent,,
sub-03,289,low_activation,incongruent,correct,526
sub-03,290,low_activation,congruent,correct,700
sub-03,291,low_activation,congruent,correct,639
sub-03,292,low_activation,incongruent,correct,594
sub-03,293,low_activation,incongruent,correct,486
sub-03,294,low_activation,congruent,correct,313
sub-03,295,low_activation,congruent,correct,587
sub-03,296,low_activation,incongruent,correct,419
sub-03,297,low_activation,incongruent,correct,701
sub-03,298,low_activation,congruent,correct,334
sub-03,299,low_activation,incongruent,correct,578
sub-03,300,low_activation,congruent,correct,486
sub-03,301,low_activation,incongruent,correct,507
sub-03,302,low_activation,incongruent,correct,690
sub-03,303,low_activation,congruent,correct,452
sub-03,304,low_activation,incongruent,correct,377
sub-03,305,low_activation,congruent,correct,678
sub-03,306,low_activation,incongruent,correct,290
sub-03,307,low_activation,incongruent,correct,577
sub-03,308,low_activation,incongruent,correct,456
sub-03,309,low_activation,congruent,correct,496
sub-03,310,low_activation,incongruent,correct,389
sub-03,311,low_activation,incongruent,correct,517
sub-03,312,low_activation,incongruent,correct,820
sub-03,313,low_activation,congruent,correct,435
sub-03,314,low_activation,incongruent,correct,508
sub-03,315,low_activation,congruent,correct,488
sub-03,316,low_activation,congruent,correct,537
sub-03,317,low_activation,congruent,correct,455
sub-03,318,low_activation,incongruent,correct,349
sub-03,319,low_activation,congruent,correct,245
sub-03,320,low_activation,congruent,correct,331
sub-03,321,low_activation,congruent,correct,405
sub-03,322,low_activation,incongruent,correct,464
sub-03,323,low_activation,congruent,correct,263
sub-03,324,low_activation,congruent,correct,412
sub-03,325,low_activation,incongruent,correct,398
sub-03,326,low_activation,congruent,correct,431
sub-03,327,low_activation,congruent,correct,565
sub-03,328,low_activation,incongruent,correct,234
sub-03,329,low_activation,incongruent,correct,300
sub-03,330,low_activation,congruent,correct,433
sub-03,331,low_activation,incongruent,correct,314
sub-03,332,low_activation,congruent,,
sub-03,333,low_activation,incongruent,correct,459
sub-03,334,low_activation,incongruent,correct,669
sub-03,335,low_activation,congruent,correct,474
sub-03,336,low_activation,congruent,correct,669
sub-03,337,low_activation,incongruent,correct,349
sub-03,338,low_activation,congruent,correct,362
sub-03,339,low_activation,congruent,incorrect,409
sub-03,340,low_activation,incongruent,correct,896
sub-03,341,low_activation,incongruent,correct,364
sub-03,342,low_activation,congruent,correct,464
sub-03,343,low_activation,incongruent,correct,549
sub-03,344,low_activation,incongruent,correct,328
sub-03,345,low_activation,incongruent,correct,11
sub-03,346,low_activation,congruent,correct,430
sub-03,347,low_activation,congruent,correct,450
sub-03,348,low_activation,congruent,correct,373
sub-03,349,low_activation,incongruent,correct,865
sub-03,350,low_activation,congruent,correct,239
sub-03,351,low_activation,congruent,correct,543
sub-03,352,low_activation,congruent,correct,537
sub-03,353,low_activation,congruent,correct,750
sub-03,354,low_activation,congruent,correct,554
sub-03,355,low_activation,congruent,correct,534
sub-03,356,low_activation,congruent,correct,506
sub-03,357,low_activation,incongruent,correct,555
sub-03,358,low_activation,congruent,correct,350
sub-03,359,low_activation,incongruent,correct,566
sub-03,360,low_activation,incongruent,correct,584
sub-03,361,low_activation,incongruent,correct,473
sub-03,362,low_activation,congruent,correct,778
sub-03,363,low_activation,congruent,correct,551
sub-03,364,low_activation,incongruent,correct,535
sub-03,365,low_activation,congruent,correct,410
sub-03,366,low_activation,congruent,correct,448
sub-03,367,low_activation,incongruent,correct,588
sub-03,368,low_activation,incongruent,correct,479
sub-03,369,low_activation,incongruent,correct,411
sub-03,370,low_activation,incongruent,correct,662
sub-03,371,low_activation,incongruent,correct,688
sub-03,372,low_activation,incongruent,correct,564
sub-03,373,low_activation,incongruent,correct,459
sub-03,374,low_activation,incongruent,correct,672
sub-03,375,low_activation,incongruent,correct,447
sub-03,376,low_activation,incongruent,correct,624
sub-03,377,low_activation,congruent,correct,416
sub-03,378,low_activation,incongruent,correct,402
sub-03,379,low_activation,incongruent,incorrect,589
sub-03,380,low_activation,congruent,correct,779
sub-03,381,low_activation,incongruent,correct,468
sub-03,382,low_activation,congruent,correct,423
sub-03,383,low_activation,incongruent,correct,534
sub-03,384,low_activation,incongruent,,
sub-03,385,low_activation,incongruent,correct,784
sub-03,386,low_activation,congruent,correct,498
sub-03,387,low_activation,incongruent,correct,506
sub-03,388,low_activation,incongruent,correct,566
sub-03,389,low_activation,congruent,correct,620
sub-03,390,low_activation,congruent,correct,656
sub-03,391,low_activation,congruent,correct,425
sub-03,392,low_activation,congruent,correct,339
sub-03,393,low_activation,congruent,correct,620
sub-03,394,low_activation,congruent,correct,275
sub-03,395,low_activation,congruent,correct,690
sub-03,396,low_activation,incongruent,correct,970
sub-03,397,low_activation,incongruent,correct,762
sub-03,398,low_activation,incongruent,correct,411
sub-03,399,low_activation,congruent,correct,628
sub-03,400,low_activation,congruent,,
sub-03,401,low_activation,congruent,correct,436
sub-03,402,low_activation,congruent,correct,483
sub-03,403,low_activation,congruent,correct,592
sub-03,404,low_activation,congruent,correct,614
sub-03,405,low_activation,congruent,correct,476
sub-03,406,low_activation,incongruent,correct,542
sub-03,407,low_activation,congruent,correct,634
sub-03,408,low_activation,incongruent,correct,507
sub-03,409,low_activation,incongruent,correct,436
sub-03,410,low_activation,incongruent,correct,412
sub-03,411,low_activation,incongruent,correct,503
sub-03,412,low_activation,congruent,,
sub-03,413,low_activation,congruent,correct,519
sub-03,414,low_activation,congruent,correct,572
sub-03,415,low_activation,incongruent,correct,504
sub-03,416,low_activation,congruent,correct,575
sub-03,417,low_activation,incongruent,correct,508
sub-03,418,low_activation,incongruent,correct,596
sub-03,419,low_activation,congruent,correct,602
sub-03,420,low_activation,congruent,correct,353
sub-03,421,low_activation,incongruent,correct,620
sub-03,422,low_activation,incongruent,correct,626
sub-03,423,low_activation,congruent,correct,465
sub-03,424,low_activation,incongruent,correct,417
sub-03,425,low_activation,incongruent,correct,376
sub-03,426,low_activation,congruent,correct,523
sub-03,427,low_activation,incongruent,correct,633
sub-03,428,low_activation,congruent,correct,600
sub-03,429,low_activation,incongruent,correct,512
sub-03,430,low_activation,congruent,correct,453
sub-03,431,low_activation,congruent,correct,474
sub-03,432,low_activation,congruent,correct,529
sub-03,433,low_activation,congruent,correct,312
sub-03,434,low_activation,congruent,correct,422
sub-03,435,low_activation,congruent,correct,552
sub-03,436,low_activation,incongruent,correct,654
sub-03,437,low_activation,incongruent,correct,854
sub-03,438,low_activation,incongruent,correct,430
sub-03,439,low_activation,congruent,correct,485
sub-03,440,low_activation,congruent,correct,528
sub-03,441,low_activation,incongruent,correct,468
sub-03,442,low_activation,congruent,correct,476
sub-03,443,low_activation,congruent,correct,447
sub-03,444,low_activation,congruent,,
sub-03,445,low_activation,congruent,correct,283
sub-03,446,low_activation,congruent,correct,604
sub-03,447,low_activation,congruent,correct,404
sub-03,448,low_activation,congruent,,
sub-03,449,low_activation,incongruent,correct,582
sub-03,450,low_activation,congruent,correct,472
sub-03,451,low_activation,incongruent,correct,492
sub-03,452,low_activation,incongruent,correct,290
sub-03,453,low_activation,congruent,correct,528
sub-03,454,low_activation,congruent,correct,661
sub-03,455,low_activation,congruent,correct,519
sub-03,456,low_activation,incongruent,correct,476
sub-03,457,low_activation,congruent,correct,527
sub-03,458,low_activation,incongruent,correct,560
sub-03,459,low_activation,incongruent,,
sub-03,460,low_activation,congruent,correct,433
sub-03,461,low_activation,congruent,correct,534
sub-03,462,low_activation,congruent,correct,1089
sub-03,463,low_activation,incongruent,,
sub-03,464,low_activation,incongruent,correct,517
sub-03,465,low_activation,congruent,correct,553
sub-03,466,low_activation,incongruent,correct,788
sub-03,467,low_activation,congruent,correct,422
sub-03,468,low_activation,incongruent,correct,421
sub-03,469,low_activation,incongruent,correct,523
sub-03,470,low_activation,congruent,correct,386
sub-03,471,low_activation,congruent,correct,385
sub-03,472,low_activation,incongruent,correct,528
sub-03,473,low_activation,incongruent,correct,493
sub-03,474,low_activation,incongruent,correct,450
sub-03,475,low_activation,incongruent,correct,518
sub-03,476,low_activation,incongruent,correct,498
sub-03,477,low_activation,congruent,correct,497
sub-03,478,low_activation,incongruent,correct,531
sub-03,479,low_activation,incongruent,correct,427
sub-03,480,low_activation,incongruent,correct,524
sub-03,481,low_activation,incongruent,correct,472
sub-03,482,low_activation,congruent,correct,608
sub-03,483,low_activation,congruent,correct,592
sub-03,484,low_activation,congruent,correct,395
sub-03,485,low_activation,incongruent,correct,580
sub-03,486,low_activation,incongruent,correct,456
sub-03,487,low_activation,incongruent,correct,560
sub-03,488,low_activation,incongruent,correct,448
sub-03,489,low_activation,congruent,correct,562
sub-03,490,low_activation,incongruent,,
sub-03,491,low_activation,incongruent,correct,410
sub-03,492,low_activation,incongruent,correct,339
sub-03,493,low_activation,congruent,correct,488
sub-03,494,low_activation,congruent,correct,498
sub-03,495,low_activation,congruent,,
sub-03,496,low_activation,incongruent,,
sub-03,497,low_activation,congruent,correct,572
sub-03,498,low_activation,incongruent,incorrect,360
sub-03,499,low_activation,congruent,correct,559
sub-03,500,low_activation,congruent,correct,360
sub-03,501,low_activation,congruent,correct,427
sub-03,502,low_activation,incongruent,correct,532
sub-03,503,low_activation,congruent,correct,282
sub-03,504,low_activation,congruent,correct,541
sub-03,505,low_activation,incongruent,correct,657
sub-03,506,low_activation,incongruent,correct,647
sub-03,507,low_activation,congruent,correct,745
sub-03,508,low_activation,incongruent,correct,432
sub-03,509,low_activation,congruent,correct,763
sub-03,510,low_activation,congruent,correct,748
sub-03,511,low_activation,congruent,correct,469
sub-03,512,low_activation,congruent,correct,458
sub-03,513,low_activation,incongruent,correct,389
sub-03,514,low_activation,congruent,correct,578
sub-03,515,low_activation,congruent,correct,524
sub-03,516,low_activation,congruent,correct,427
sub-03,517,low_activation,congruent,correct,449
sub-03,518,low_activation,congruent,correct,309
sub-03,519,low_activation,congruent,,
sub-03,520,low_activation,incongruent,correct,617
sub-03,521,low_activation,incongruent,correct,467
sub-03,522,low_activation,incongruent,correct,425
sub-03,523,low_activation,incongruent,correct,379
sub-03,524,low_activation,congruent,correct,578
sub-03,525,low_activation,incongruent,correct,525
sub-03,526,low_activation,incongruent,correct,522
sub-03,527,low_activation,congruent,correct,354
sub-03,528,low_activation,congruent,correct,502
sub-03,529,low_activation,incongruent,correct,505
sub-03,530,low_activation,congruent,,
sub-03,531,low_activation,congruent,correct,429
sub-03,532,low_activation,incongruent,correct,515
sub-03,533,low_activation,congruent,correct,434
sub-03,534,low_activation,incongruent,correct,422
sub-03,535,low_activation,incongruent,correct,488
sub-03,536,low_activation,incongruent,correct,424
sub-03,537,low_activation,congruent,correct,900
sub-03,538,low_activation,incongruent,correct,602
sub-03,539,low_activation,incongruent,correct,567
sub-03,540,low_activation,congruent,correct,724
sub-03,541,low_activation,incongruent,correct,644
sub-03,542,low_activation,congruent,correct,490
sub-03,543,low_activation,congruent,correct,464
sub-03,544,low_activation,incongruent,correct,515
sub-03,545,low_activation,congruent,correct,413
sub-03,546,low_activation,incongruent,correct,426
sub-03,547,low_activation,congruent,correct,457
sub-03,548,low_activation,incongruent,correct,624
sub-03,549,low_activation,congruent,correct,435
sub-03,550,low_activation,congruent,correct,325
sub-03,551,low_activation,incongruent,correct,276
sub-03,552,low_activation,incongruent,correct,373
sub-03,553,low_activation,congruent,correct,283
sub-03,554,low_activation,congruent,correct,600
sub-03,555,low_activation,congruent,correct,499
sub-03,556,low_activation,incongruent,correct,473
sub-03,557,low_activation,incongruent,correct,462
sub-03,558,low_activation,incongruent,correct,544
sub-03,559,low_activation,congruent,correct,326
sub-03,560,low_activation,congruent,correct,450
sub-03,561,low_activation,incongruent,correct,312
sub-03,562,low_activation,congruent,correct,363
sub-03,563,low_activation,incongruent,correct,385
sub-03,564,low_activation,congruent,correct,226
sub-03,565,low_activation,incongruent,correct,307
sub-03,566,low_activation,incongruent,correct,308
sub-03,567,low_activation,congruent,correct,236
sub-03,568,low_activation,incongruent,correct,360
sub-03,569,low_activation,congruent,correct,556
sub-03,570,low_activation,incongruent,correct,651
sub-03,571,low_activation,incongruent,correct,552
sub-03,572,low_activation,incongruent,correct,343
sub-03,573,low_activation,incongruent,correct,456
sub-03,574,low_activation,congruent,correct,354
sub-03,575,low_activation,congruent,correct,301
sub-03,576,low_activation,congruent,correct,298
sub-03,577,low_activation,congruent,incorrect,278
sub-03,578,low_activation,incongruent,correct,405
sub-03,579,low_activation,congruent,correct,478
sub-03,580,low_activation,congruent,correct,362
sub-03,581,low_activation,incongruent,correct,420
sub-03,582,low_activation,congruent,correct,414
sub-03,583,low_activation,incongruent,correct,338
sub-03,584,low_activation,incongruent,correct,348
sub-03,585,low_activation,incongruent,correct,464
sub-03,586,low_activation,incongruent,correct,379
sub-03,587,low_activation,congruent,correct,410
sub-03,588,low_activation,incongruent,correct,480
sub-03,589,low_activation,incongruent,correct,335
sub-03,590,low_activation,incongruent,correct,590
sub-03,591,low_activation,congruent,correct,383
sub-03,592,low_activation,incongruent,correct,817
sub-03,593,low_activation,congruent,correct,314
sub-03,594,low_activation,incongruent,correct,514
sub-03,595,low_activation,congruent,incorrect,54
sub-03,596,low_activation,incongruent,correct,598
sub-03,597,low_activation,congruent,correct,424
sub-03,598,low_activation,incongruent,,
sub-03,599,low_activation,incongruent,correct,485
sub-03,600,low_activation,congruent,correct,496
sub-03,601,low_activation,congruent,correct,638
sub-03,602,low_activation,congruent,correct,547
sub-03,603,low_activation,incongruent,correct,570
sub-03,604,low_activation,incongruent,correct,312
sub-03,605,low_activation,congruent,correct,539
sub-03,606,low_activation,incongruent,correct,522
sub-03,607,low_activation,incongruent,correct,515
sub-03,608,low_activation,incongruent,correct,473
sub-03,609,low_activation,incongruent,correct,344
sub-03,610,low_activation,incongruent,correct,583
sub-03,611,low_activation,congruent,,
sub-03,612,low_activation,congruent,correct,527
sub-03,613,low_activation,incongruent,correct,444
sub-03,614,low_activation,incongruent,correct,616
sub-03,615,low_activation,congruent,correct,555
sub-03,616,low_activation,congruent,correct,603
sub-03,617,low_activation,incongruent,correct,554
sub-03,618,low_activation,incongruent,correct,362
sub-03,619,low_activation,incongruent,correct,519
sub-03,620,low_activation,congruent,correct,460
sub-03,621,low_activation,incongruent,correct,534
sub-03,622,low_activation,congruent,correct,476
sub-03,623,low_activation,congruent,correct,444
sub-03,624,low_activation,incongruent,correct,497
sub-03,625,low_activation,congruent,correct,432
sub-03,626,low_activation,incongruent,correct,418
sub-03,627,low_activation,incongruent,correct,485
sub-03,628,low_activation,congruent,correct,432
sub-03,629,low_activation,congruent,,
sub-03,630,low_activation,incongruent,correct,423
sub-03,631,low_activation,congruent,correct,295
sub-03,632,low_activation,incongruent,incorrect,325
sub-03,633,low_activation,congruent,correct,486
sub-03,634,low_activation,incongruent,correct,498
sub-03,635,low_activation,incongruent,correct,506
sub-03,636,low_activation,incongruent,correct,459
sub-03,637,low_activation,incongruent,correct,900
sub-03,638,low_activation,incongruent,correct,578
sub-03,639,low_activation,incongruent,correct,469
sub-03,640,low_activation,congruent,correct,527
sub-03,641,low_activation,incongruent,correct,433
sub-03,642,low_activation,congruent,correct,491
sub-03,643,low_activation,incongruent,,
sub-03,644,low_activation,incongruent,correct,680
sub-03,645,low_activation,congruent,correct,436
sub-03,646,low_activation,congruent,correct,402
sub-03,647,low_activation,incongruent,correct,587
sub-03,648,low_activation,congruent,correct,1041
sub-03,649,low_activation,congruent,correct,494
sub-03,650,low_activation,incongruent,correct,479
sub-03,651,low_activation,incongruent,correct,624
sub-03,652,low_activation,congruent,correct,476
sub-03,653,low_activation,incongruent,correct,459
sub-03,654,low_activation,incongruent,correct,464
sub-03,655,low_activation,congruent,incorrect,22
sub-03,656,low_activation,incongruent,correct,458
sub-03,657,low_activation,congruent,correct,225
sub-03,658,low_activation,congruent,correct,444
sub-03,659,low_activation,incongruent,incorrect,223
sub-03,660,low_activation,congruent,correct,562
sub-03,661,low_activation,congruent,correct,582
sub-03,662,low_activation,congruent,correct,496
sub-03,663,low_activation,incongruent,correct,438
sub-03,664,low_activation,incongruent,correct,472
sub-03,665,low_activation,incongruent,correct,402
sub-03,666,low_activation,congruent,,
sub-03,667,low_activation,congruent,,
sub-03,668,low_activation,congruent,,
sub-03,669,low_activation,incongruent,,
sub-03,670,low_activation,incongruent,correct,456
sub-03,671,low_activation,congruent,correct,637
sub-03,672,low_activation,congruent,correct,469
sub-03,673,low_activation,congruent,correct,374
sub-03,674,low_activation,incongruent,incorrect,636
sub-03,675,low_activation,incongruent,correct,654
sub-03,676,low_activation,incongruent,correct,502
sub-03,677,low_activation,congruent,correct,412
sub-03,678,low_activation,incongruent,correct,369
sub-03,679,low_activation,incongruent,correct,599
sub-03,680,low_activation,incongruent,,
sub-03,681,low_activation,congruent,correct,518
sub-03,682,low_activation,incongruent,correct,535
sub-03,683,low_activation,congruent,correct,534
sub-03,684,low_activation,incongruent,correct,570
sub-03,685,low_activation,congruent,correct,523
sub-03,686,low_activation,incongruent,correct,520
sub-03,687,low_activation,congruent,correct,578
sub-03,688,low_activation,congruent,correct,350
sub-03,689,low_activation,incongruent,correct,500
sub-03,690,low_activation,incongruent,correct,545
sub-03,691,low_activation,congruent,correct,434
sub-03,692,low_activation,incongruent,,
sub-03,693,low_activation,incongruent,correct,850
sub-03,694,low_activation,congruent,correct,534
sub-03,695,low_activation,incongruent,correct,469
sub-03,696,low_activation,congruent,correct,423
sub-03,697,low_activation,incongruent,correct,507
sub-03,698,low_activation,incongruent,correct,548
sub-03,699,low_activation,congruent,correct,456
sub-03,700,low_activation,congruent,correct,646
sub-03,701,low_activation,congruent,correct,318
sub-03,702,low_activation,congruent,correct,479
sub-03,703,low_activation,congruent,correct,448
sub-03,704,low_activation,congruent,correct,340
sub-03,705,low_activation,congruent,correct,486
sub-03,706,low_activation,congruent,correct,450
sub-03,707,low_activation,incongruent,correct,531
sub-03,708,low_activation,incongruent,correct,554
sub-03,709,low_activation,incongruent,correct,456
sub-03,710,low_activation,congruent,correct,749
sub-03,711,low_activation,congruent,correct,472
sub-03,712,low_activation,incongruent,incorrect,519
sub-03,713,low_activation,incongruent,correct,655
sub-03,714,low_activation,congruent,correct,472
sub-03,715,low_activation,congruent,correct,442
sub-03,716,low_activation,incongruent,correct,595
sub-03,717,low_activation,congruent,correct,448
sub-03,718,low_activation,congruent,correct,364
sub-03,719,low_activation,incongruent,correct,536
sub-03,720,low_activation,incongruent,correct,363
sub-03,721,low_activation,incongruent,correct,465
sub-03,722,low_activation,incongruent,correct,315
sub-03,723,low_activation,incongruent,correct,420
sub-03,724,low_activation,congruent,correct,326
sub-03,725,low_activation,incongruent,correct,353
sub-03,726,low_activation,incongruent,correct,564
sub-03,727,low_activation,incongruent,correct,1083
sub-03,728,low_activation,incongruent,correct,991
sub-03,729,low_activation,congruent,correct,784
sub-03,730,low_activation,incongruent,correct,421
sub-03,731,low_activation,incongruent,correct,447
sub-03,732,low_activation,incongruent,correct,530
sub-03,733,low_activation,incongruent,correct,547
sub-03,734,low_activation,congruent,,
sub-03,735,low_activation,incongruent,incorrect,26
sub-03,736,low_activation,incongruent,correct,715
sub-03,737,low_activation,congruent,correct,345
sub-03,738,low_activation,incongruent,correct,730
sub-03,739,low_activation,incongruent,correct,368
sub-03,740,low_activation,congruent,correct,384
sub-03,741,low_activation,congruent,correct,344
sub-03,742,low_activation,incongruent,correct,475
sub-03,743,low_activation,incongruent,correct,483
sub-03,744,low_activation,incongruent,correct,464
sub-03,745,low_activation,incongruent,correct,511
sub-03,746,low_activation,incongruent,correct,351
sub-03,747,low_activation,congruent,,
sub-03,748,low_activation,congruent,correct,532
sub-03,749,low_activation,incongruent,correct,1037
sub-03,750,low_activation,incongruent,correct,416
sub-03,751,low_activation,congruent,correct,368
sub-03,752,low_activation,congruent,correct,369
sub-03,753,low_activation,incongruent,correct,375
sub-03,754,low_activation,incongruent,correct,430
sub-03,755,low_activation,incongruent,correct,287
sub-03,756,low_activation,incongruent,correct,340
sub-03,757,low_activation,incongruent,correct,349
sub-03,758,low_activation,incongruent,correct,462
sub-03,759,low_activation,incongruent,correct,716
sub-03,760,low_activation,incongruent,correct,746
sub-03,761,low_activation,congruent,,
sub-03,762,low_activation,congruent,correct,419
sub-03,763,low_activation,incongruent,incorrect,454
sub-03,764,low_activation,congruent,correct,513
sub-03,765,low_activation,incongruent,correct,314
sub-03,766,low_activation,incongruent,correct,339
sub-03,767,low_activation,congruent,correct,322
sub-03,768,low_activation,incongruent,correct,332
sub-03,769,low_activation,incongruent,correct,486
sub-03,770,low_activation,incongruent,correct,325
sub-03,771,low_activation,congruent,correct,323
sub-03,772,low_activation,congruent,correct,356
sub-03,773,low_activation,incongruent,correct,699
sub-03,774,low_activation,congruent,correct,398
sub-03,775,low_activation,incongruent,,
sub-03,776,low_activation,congruent,,
sub-03,777,low_activation,incongruent,,
