sub_ID,trial_number,physical_activation,trial_congruency,resp_correctness,reaction_times
sub-16,1,high_activation,incongruent,correct,712
sub-16,2,high_activation,congruent,correct,611
sub-16,3,high_activation,congruent,correct,594
sub-16,4,high_activation,congruent,correct,526
sub-16,5,high_activation,congruent,correct,536
sub-16,6,high_activation,congruent,correct,452
sub-16,7,high_activation,incongruent,correct,807
sub-16,8,high_activation,congruent,correct,462
sub-16,9,high_activation,congruent,correct,503
sub-16,10,high_activation,incongruent,correct,634
sub-16,11,high_activation,congruent,correct,532
sub-16,12,high_activation,congruent,correct,526
sub-16,13,high_activation,incongruent,correct,649
sub-16,14,high_activation,congruent,correct,461
sub-16,15,high_activation,incongruent,correct,617
sub-16,16,high_activation,incongruent,correct,469
sub-16,17,high_activation,incongruent,correct,447
sub-16,18,high_activation,incongruent,correct,432
sub-16,19,high_activation,congruent,correct,554
sub-16,20,high_activation,incongruent,correct,445
sub-16,21,high_activation,incongruent,correct,662
sub-16,22,high_activation,incongruent,correct,578
sub-16,23,high_activation,congruent,correct,498
sub-16,24,high_activation,congruent,correct,536
sub-16,25,high_activation,incongruent,correct,597
sub-16,26,high_activation,congruent,correct,567
sub-16,27,high_activation,congruent,correct,367
sub-16,28,high_activation,incongruent,correct,476
sub-16,29,high_activation,incongruent,correct,433
sub-16,30,high_activation,incongruent,correct,633
sub-16,31,high_activation,congruent,correct,374
sub-16,32,high_activation,incongruent,correct,504
sub-16,33,high_activation,congruent,correct,390
sub-16,34,high_activation,incongruent,correct,514
sub-16,35,high_activation,incongruent,correct,421
sub-16,36,high_activation,incongruent,correct,452
sub-16,37,high_activation,congruent,correct,380
sub-16,38,high_activation,incongruent,correct,502
sub-16,39,high_activation,congruent,correct,565
sub-16,40,high_activation,congruent,correct,461
sub-16,41,high_activation,incongruent,correct,669
sub-16,42,high_activation,incongruent,correct,604
sub-16,43,high_activation,incongruent,correct,415
sub-16,44,high_activation,congruent,correct,489
sub-16,45,high_activation,incongruent,correct,569
sub-16,46,high_activation,congruent,correct,655
sub-16,47,high_activation,congruent,correct,403
sub-16,48,high_activation,congruent,correct,406
sub-16,49,high_activation,congruent,correct,420
sub-16,50,high_activation,congruent,correct,423
sub-16,51,high_activation,incongruent,correct,528
sub-16,52,high_activation,congruent,correct,473
sub-16,53,high_activation,congruent,correct,457
sub-16,54,high_activation,incongruent,correct,505
sub-16,55,high_activation,incongruent,correct,504
sub-16,56,high_activation,incongruent,correct,521
sub-16,57,high_activation,congruent,correct,702
sub-16,58,high_activation,incongruent,correct,613
sub-16,59,high_activation,congruent,correct,624
sub-16,60,high_activation,incongruent,correct,537
sub-16,61,high_activation,congruent,correct,843
sub-16,62,high_activation,incongruent,correct,518
sub-16,63,high_activation,incongruent,correct,527
sub-16,64,high_activation,congruent,correct,575
sub-16,65,high_activation,congruent,correct,565
sub-16,66,high_activation,incongruent,correct,599
sub-16,67,high_activation,congruent,correct,601
sub-16,68,high_activation,incongruent,correct,630
sub-16,69,high_activation,congruent,correct,628
sub-16,70,high_activation,incongruent,correct,569
sub-16,71,high_activation,congruent,correct,637
sub-16,72,high_activation,congruent,correct,466
sub-16,73,high_activation,incongruent,correct,645
sub-16,74,high_activation,incongruent,correct,456
sub-16,75,high_activation,congruent,correct,421
sub-16,76,high_activation,congruent,correct,535
sub-16,77,high_activation,congruent,correct,597
sub-16,78,high_activation,congruent,correct,567
sub-16,79,high_activation,incongruent,correct,460
sub-16,80,high_activation,incongruent,correct,456
sub-16,81,high_activation,incongruent,correct,505
sub-16,82,high_activation,congruent,correct,641
sub-16,83,high_activation,congruent,correct,463
sub-16,84,high_activation,incongruent,correct,644
sub-16,85,high_activation,incongruent,correct,891
sub-16,86,high_activation,congruent,correct,531
sub-16,87,high_activation,congruent,correct,550
sub-16,88,high_activation,congruent,correct,545
sub-16,89,high_activation,incongruent,correct,493
sub-16,90,high_activation,incongruent,correct,547
sub-16,91,high_activation,congruent,correct,550
sub-16,92,high_activation,congruent,correct,564
sub-16,93,high_activation,incongruent,correct,453
sub-16,94,high_activation,incongruent,correct,587
sub-16,95,high_activation,congruent,correct,446
sub-16,96,high_activation,congruent,correct,565
sub-16,97,high_activation,congruent,correct,552
sub-16,98,high_activation,congruent,correct,451
sub-16,99,high_activation,congruent,correct,548
sub-16,100,high_activation,congruent,correct,592
sub-16,101,high_activation,congruent,correct,457
sub-16,102,high_activation,incongruent,correct,527
sub-16,103,high_activation,congruent,correct,499
sub-16,104,high_activation,incongruent,correct,442
sub-16,105,high_activation,incongruent,correct,724
sub-16,106,high_activation,incongruent,correct,543
sub-16,107,high_activation,incongruent,correct,527
sub-16,108,high_activation,incongruent,correct,530
sub-16,109,high_activation,incongruent,correct,455
sub-16,110,high_activation,congruent,correct,469
sub-16,111,high_activation,incongruent,correct,446
sub-16,112,high_activation,incongruent,correct,577
sub-16,113,high_activation,congruent,correct,467
sub-16,114,high_activation,incongruent,correct,515
sub-16,115,high_activation,congruent,correct,484
sub-16,116,high_activation,incongruent,correct,417
sub-16,117,high_activation,incongruent,correct,476
sub-16,118,high_activation,congruent,correct,499
sub-16,119,high_activation,congruent,correct,515
sub-16,120,high_activation,congruent,correct,581
sub-16,121,high_activation,incongruent,correct,617
sub-16,122,high_activation,incongruent,correct,608
sub-16,123,high_activation,incongruent,correct,620
sub-16,124,high_activation,incongruent,correct,625
sub-16,125,high_activation,incongruent,correct,536
sub-16,126,high_activation,congruent,correct,522
sub-16,127,high_activation,congruent,correct,525
sub-16,128,high_activation,incongruent,correct,568
sub-16,129,high_activation,incongruent,correct,395
sub-16,130,high_activation,incongruent,correct,477
sub-16,131,high_activation,incongruent,correct,465
sub-16,132,high_activation,congruent,correct,977
sub-16,133,high_activation,incongruent,correct,540
sub-16,134,high_activation,congruent,correct,502
sub-16,135,high_activation,congruent,correct,487
sub-16,136,high_activation,incongruent,correct,615
sub-16,137,high_activation,congruent,correct,564
sub-16,138,high_activation,congruent,correct,411
sub-16,139,high_activation,incongruent,correct,663
sub-16,140,high_activation,incongruent,correct,540
sub-16,141,high_activation,incongruent,correct,449
sub-16,142,high_activation,incongruent,correct,496
sub-16,143,high_activation,incongruent,correct,551
sub-16,144,high_activation,incongruent,correct,553
sub-16,145,high_activation,congruent,correct,686
sub-16,146,high_activation,incongruent,correct,537
sub-16,147,high_activation,incongruent,correct,756
sub-16,148,high_activation,incongruent,correct,455
sub-16,149,high_activation,incongruent,correct,425
sub-16,150,high_activation,incongruent,correct,597
sub-16,151,high_activation,incongruent,correct,480
sub-16,152,high_activation,congruent,correct,666
sub-16,153,high_activation,incongruent,correct,443
sub-16,154,high_activation,incongruent,correct,503
sub-16,155,high_activation,congruent,correct,469
sub-16,156,high_activation,incongruent,correct,410
sub-16,157,high_activation,incongruent,correct,557
sub-16,158,high_activation,incongruent,correct,619
sub-16,159,high_activation,incongruent,correct,432
sub-16,160,high_activation,incongruent,correct,449
sub-16,161,high_activation,incongruent,correct,507
sub-16,162,high_activation,incongruent,correct,484
sub-16,163,high_activation,incongruent,correct,483
sub-16,164,high_activation,congruent,correct,449
sub-16,165,high_activation,incongruent,correct,611
sub-16,166,high_activation,congruent,correct,443
sub-16,167,high_activation,congruent,correct,437
sub-16,168,high_activation,incongruent,correct,532
sub-16,169,high_activation,congruent,correct,516
sub-16,170,high_activation,congruent,correct,553
sub-16,171,high_activation,incongruent,correct,654
sub-16,172,high_activation,congruent,correct,533
sub-16,173,high_activation,incongruent,correct,389
sub-16,174,high_activation,incongruent,correct,515
sub-16,175,high_activation,incongruent,correct,464
sub-16,176,high_activation,congruent,correct,578
sub-16,177,high_activation,congruent,correct,641
sub-16,178,high_activation,incongruent,correct,506
sub-16,179,high_activation,congruent,correct,507
sub-16,180,high_activation,congruent,correct,602
sub-16,181,high_activation,incongruent,correct,628
sub-16,182,high_activation,congruent,correct,589
sub-16,183,high_activation,congruent,correct,550
sub-16,184,high_activation,congruent,correct,665
sub-16,185,high_activation,congruent,correct,528
sub-16,186,high_activation,congruent,correct,592
sub-16,187,high_activation,incongruent,correct,564
sub-16,188,high_activation,incongruent,correct,474
sub-16,189,high_activation,incongruent,correct,490
sub-16,190,high_activation,congruent,correct,468
sub-16,191,high_activation,congruent,correct,534
sub-16,192,high_activation,congruent,correct,454
sub-16,193,high_activation,incongruent,correct,609
sub-16,194,high_activation,congruent,correct,593
sub-16,195,high_activation,congruent,correct,679
sub-16,196,high_activation,congruent,correct,511
sub-16,197,high_activation,congruent,correct,625
sub-16,198,high_activation,congruent,correct,533
sub-16,199,high_activation,congruent,correct,506
sub-16,200,high_activation,congruent,correct,588
sub-16,201,high_activation,incongruent,correct,587
sub-16,202,high_activation,incongruent,correct,618
sub-16,203,high_activation,congruent,correct,708
sub-16,204,high_activation,congruent,correct,691
sub-16,205,high_activation,incongruent,correct,512
sub-16,206,high_activation,congruent,correct,639
sub-16,207,high_activation,incongruent,correct,460
sub-16,208,high_activation,congruent,correct,508
sub-16,209,high_activation,congruent,correct,454
sub-16,210,high_activation,incongruent,correct,602
sub-16,211,high_activation,incongruent,correct,499
sub-16,212,high_activation,incongruent,correct,669
sub-16,213,high_activation,congruent,correct,531
sub-16,214,high_activation,congruent,correct,633
sub-16,215,high_activation,incongruent,correct,550
sub-16,216,high_activation,incongruent,correct,593
sub-16,217,high_activation,incongruent,correct,632
sub-16,218,high_activation,congruent,correct,553
sub-16,219,high_activation,incongruent,correct,482
sub-16,220,high_activation,incongruent,correct,703
sub-16,221,high_activation,incongruent,correct,644
sub-16,222,high_activation,incongruent,correct,632
sub-16,223,high_activation,congruent,correct,581
sub-16,224,high_activation,incongruent,correct,651
sub-16,225,high_activation,congruent,correct,898
sub-16,226,high_activation,congruent,correct,479
sub-16,227,high_activation,congruent,correct,512
sub-16,228,high_activation,congruent,correct,591
sub-16,229,high_activation,congruent,correct,573
sub-16,230,high_activation,incongruent,correct,544
sub-16,231,high_activation,incongruent,correct,613
sub-16,232,high_activation,incongruent,correct,585
sub-16,233,high_activation,incongruent,correct,538
sub-16,234,high_activation,incongruent,correct,661
sub-16,235,high_activation,incongruent,correct,706
sub-16,236,high_activation,incongruent,correct,504
sub-16,237,high_activation,incongruent,correct,900
sub-16,238,high_activation,congruent,correct,393
sub-16,239,high_activation,incongruent,correct,640
sub-16,240,high_activation,congruent,correct,445
sub-16,241,high_activation,congruent,correct,496
sub-16,242,high_activation,congruent,correct,505
sub-16,243,high_activation,congruent,correct,518
sub-16,244,high_activation,congruent,correct,508
sub-16,245,high_activation,congruent,correct,467
sub-16,246,high_activation,incongruent,correct,629
sub-16,247,high_activation,incongruent,correct,787
sub-16,248,high_activation,congruent,correct,522
sub-16,249,high_activation,congruent,correct,479
sub-16,250,high_activation,congruent,correct,504
sub-16,251,high_activation,congruent,correct,492
sub-16,252,high_activation,incongruent,correct,534
sub-16,253,high_activation,incongruent,correct,712
sub-16,254,high_activation,incongruent,correct,408
sub-16,255,high_activation,incongruent,correct,517
sub-16,256,high_activation,congruent,correct,629
sub-16,257,high_activation,incongruent,correct,546
sub-16,258,high_activation,congruent,correct,515
sub-16,259,high_activation,incongruent,correct,582
sub-16,260,high_activation,congruent,correct,505
sub-16,261,high_activation,incongruent,correct,627
sub-16,262,high_activation,congruent,correct,577
sub-16,263,high_activation,congruent,correct,403
sub-16,264,high_activation,incongruent,correct,552
sub-16,265,high_activation,incongruent,correct,587
sub-16,266,high_activation,incongruent,correct,507
sub-16,267,high_activation,congruent,correct,515
sub-16,268,high_activation,incongruent,correct,447
sub-16,269,high_activation,congruent,correct,535
sub-16,270,high_activation,incongruent,correct,648
sub-16,271,high_activation,incongruent,correct,585
sub-16,272,high_activation,congruent,correct,451
sub-16,273,high_activation,congruent,correct,548
sub-16,274,high_activation,congruent,correct,509
sub-16,275,high_activation,congruent,correct,579
sub-16,276,high_activation,incongruent,correct,544
sub-16,277,high_activation,incongruent,correct,590
sub-16,278,high_activation,congruent,correct,678
sub-16,279,high_activation,congruent,correct,427
sub-16,280,high_activation,congruent,correct,608
sub-16,281,high_activation,incongruent,correct,675
sub-16,282,high_activation,incongruent,correct,641
sub-16,283,high_activation,incongruent,correct,605
sub-16,284,high_activation,incongruent,correct,709
sub-16,285,high_activation,incongruent,correct,816
sub-16,286,high_activation,congruent,correct,461
sub-16,287,high_activation,congruent,correct,544
sub-16,288,high_activation,congruent,correct,393
sub-16,289,high_activation,incongruent,correct,394
sub-16,290,high_activation,incongruent,correct,448
sub-16,291,high_activation,incongruent,correct,471
sub-16,292,high_activation,congruent,correct,528
sub-16,293,high_activation,congruent,correct,559
sub-16,294,high_activation,incongruent,correct,548
sub-16,295,high_activation,incongruent,correct,506
sub-16,296,high_activation,incongruent,correct,468
sub-16,297,high_activation,congruent,correct,376
sub-16,298,high_activation,congruent,correct,488
sub-16,299,high_activation,incongruent,correct,375
sub-16,300,high_activation,incongruent,correct,468
sub-16,301,high_activation,incongruent,correct,457
sub-16,302,high_activation,incongruent,correct,527
sub-16,303,high_activation,incongruent,correct,538
sub-16,304,high_activation,incongruent,correct,375
sub-16,305,high_activation,congruent,correct,414
sub-16,306,high_activation,incongruent,correct,406
sub-16,307,high_activation,incongruent,correct,544
sub-16,308,high_activation,congruent,correct,471
sub-16,309,high_activation,incongruent,correct,681
sub-16,310,high_activation,incongruent,correct,489
sub-16,311,high_activation,congruent,correct,505
sub-16,312,high_activation,incongruent,correct,523
sub-16,313,high_activation,incongruent,correct,402
sub-16,314,high_activation,incongruent,correct,455
sub-16,315,high_activation,incongruent,correct,478
sub-16,316,high_activation,incongruent,correct,575
sub-16,317,high_activation,congruent,correct,441
sub-16,318,high_activation,congruent,correct,652
sub-16,319,high_activation,incongruent,correct,561
sub-16,320,high_activation,congruent,correct,784
sub-16,321,high_activation,incongruent,correct,530
sub-16,322,high_activation,congruent,correct,412
sub-16,323,high_activation,incongruent,correct,464
sub-16,324,high_activation,congruent,correct,401
sub-16,325,high_activation,congruent,correct,397
sub-16,326,high_activation,incongruent,correct,461
sub-16,327,high_activation,incongruent,correct,359
sub-16,328,high_activation,incongruent,correct,415
sub-16,329,high_activation,incongruent,correct,429
sub-16,330,high_activation,congruent,correct,548
sub-16,331,high_activation,congruent,correct,531
sub-16,332,high_activation,incongruent,correct,497
sub-16,333,high_activation,incongruent,correct,483
sub-16,334,high_activation,incongruent,correct,579
sub-16,335,high_activation,incongruent,correct,460
sub-16,336,high_activation,incongruent,correct,336
sub-16,337,high_activation,congruent,correct,575
sub-16,338,high_activation,congruent,correct,533
sub-16,339,high_activation,incongruent,correct,495
sub-16,340,high_activation,incongruent,correct,519
sub-16,341,high_activation,incongruent,correct,480
sub-16,342,high_activation,incongruent,correct,439
sub-16,343,high_activation,congruent,correct,483
sub-16,344,high_activation,incongruent,correct,479
sub-16,345,high_activation,incongruent,correct,679
sub-16,346,high_activation,congruent,correct,428
sub-16,347,high_activation,congruent,correct,595
sub-16,348,high_activation,incongruent,correct,534
sub-16,349,high_activation,congruent,correct,428
sub-16,350,high_activation,congruent,correct,420
sub-16,351,high_activation,congruent,correct,563
sub-16,352,high_activation,congruent,correct,537
sub-16,353,high_activation,congruent,correct,440
sub-16,354,high_activation,congruent,correct,652
sub-16,355,high_activation,incongruent,correct,444
sub-16,356,high_activation,incongruent,correct,437
sub-16,357,high_activation,congruent,correct,483
sub-16,358,high_activation,congruent,correct,439
sub-16,359,high_activation,incongruent,correct,763
sub-16,360,high_activation,incongruent,correct,728
sub-16,361,high_activation,incongruent,correct,582
sub-16,362,high_activation,congruent,,NaN
sub-16,363,high_activation,incongruent,correct,771
sub-16,364,high_activation,congruent,correct,582
sub-16,365,high_activation,incongruent,correct,636
sub-16,366,high_activation,congruent,correct,601
sub-16,367,high_activation,congruent,correct,624
sub-16,368,high_activation,incongruent,correct,648
sub-16,369,high_activation,incongruent,correct,727
sub-16,370,high_activation,incongruent,correct,666
sub-16,371,high_activation,congruent,correct,742
sub-16,372,high_activation,incongruent,correct,567
sub-16,373,high_activation,incongruent,correct,626
sub-16,374,high_activation,incongruent,correct,790
sub-16,375,high_activation,incongruent,correct,514
sub-16,376,high_activation,incongruent,correct,517
sub-16,377,high_activation,congruent,correct,612
sub-16,378,high_activation,incongruent,correct,669
sub-16,379,high_activation,congruent,correct,511
sub-16,380,high_activation,incongruent,correct,496
sub-16,381,high_activation,congruent,correct,469
sub-16,382,high_activation,incongruent,correct,562
sub-16,383,high_activation,incongruent,correct,462
sub-16,384,high_activation,congruent,correct,491
sub-16,385,high_activation,congruent,correct,302
sub-16,386,high_activation,congruent,correct,351
sub-16,387,high_activation,congruent,correct,383
sub-16,388,high_activation,incongruent,correct,322
sub-16,389,high_activation,congruent,correct,467
sub-16,390,high_activation,incongruent,correct,482
sub-16,391,high_activation,incongruent,correct,477
sub-16,392,high_activation,incongruent,correct,427
sub-16,393,high_activation,congruent,correct,447
sub-16,394,high_activation,congruent,correct,430
sub-16,395,high_activation,congruent,correct,339
sub-16,396,high_activation,congruent,correct,404
sub-16,397,high_activation,incongruent,correct,388
sub-16,398,high_activation,congruent,correct,454
sub-16,399,high_activation,congruent,correct,390
sub-16,400,high_activation,congruent,correct,360
sub-16,401,high_activation,congruent,correct,439
sub-16,402,high_activation,congruent,correct,420
sub-16,403,high_activation,incongruent,correct,456
sub-16,404,high_activation,congruent,correct,510
sub-16,405,high_activation,incongruent,correct,443
sub-16,406,high_activation,congruent,correct,489
sub-16,407,high_activation,congruent,correct,601
sub-16,408,high_activation,incongruent,correct,487
sub-16,409,high_activation,congruent,correct,432
sub-16,410,high_activation,incongruent,correct,432
sub-16,411,high_activation,congruent,correct,494
sub-16,412,high_activation,incongruent,correct,476
sub-16,413,high_activation,incongruent,correct,490
sub-16,414,high_activation,congruent,correct,425
sub-16,415,high_activation,congruent,correct,459
sub-16,416,high_activation,incongruent,correct,737
sub-16,417,high_activation,incongruent,correct,381
sub-16,418,high_activation,incongruent,correct,377
sub-16,419,high_activation,incongruent,correct,434
sub-16,420,high_activation,congruent,correct,404
sub-16,421,high_activation,congruent,correct,350
sub-16,422,high_activation,incongruent,correct,430
sub-16,423,high_activation,congruent,correct,479
sub-16,424,high_activation,incongruent,correct,416
sub-16,425,high_activation,incongruent,correct,530
sub-16,426,high_activation,congruent,correct,364
sub-16,427,high_activation,congruent,correct,567
sub-16,428,high_activation,congruent,correct,600
sub-16,429,high_activation,incongruent,correct,423
sub-16,430,high_activation,incongruent,correct,454
sub-16,431,high_activation,congruent,correct,699
sub-16,432,high_activation,congruent,correct,488
sub-16,433,high_activation,congruent,correct,335
sub-16,434,high_activation,incongruent,correct,360
sub-16,435,high_activation,incongruent,correct,501
sub-16,436,high_activation,congruent,correct,423
sub-16,437,high_activation,congruent,correct,384
sub-16,438,high_activation,incongruent,correct,723
sub-16,439,high_activation,congruent,,NaN
sub-16,440,high_activation,incongruent,correct,403
sub-16,441,high_activation,congruent,correct,490
sub-16,442,high_activation,incongruent,correct,403
sub-16,443,high_activation,congruent,correct,424
sub-16,444,high_activation,congruent,correct,391
sub-16,445,high_activation,incongruent,incorrect,371
sub-16,446,high_activation,congruent,correct,523
sub-16,447,high_activation,incongruent,correct,453
sub-16,448,high_activation,congruent,correct,532
sub-16,449,high_activation,congruent,correct,392
sub-16,450,high_activation,congruent,,NaN
sub-16,451,high_activation,congruent,,NaN
sub-16,452,high_activation,incongruent,correct,445
sub-16,453,high_activation,incongruent,correct,585
sub-16,454,high_activation,congruent,correct,420
sub-16,455,high_activation,incongruent,correct,481
sub-16,456,high_activation,incongruent,correct,544
sub-16,457,high_activation,incongruent,correct,765
sub-16,458,high_activation,congruent,correct,530
sub-16,459,high_activation,congruent,correct,541
sub-16,460,high_activation,incongruent,correct,518
sub-16,461,high_activation,congruent,correct,620
sub-16,462,high_activation,congruent,correct,415
sub-16,463,high_activation,congruent,correct,554
sub-16,464,high_activation,incongruent,correct,550
sub-16,465,high_activation,incongruent,correct,447
sub-16,466,high_activation,incongruent,correct,639
sub-16,467,high_activation,congruent,correct,486
sub-16,468,high_activation,congruent,,NaN
sub-16,469,high_activation,incongruent,correct,640
sub-16,470,high_activation,congruent,correct,1064
sub-16,471,high_activation,congruent,correct,454
sub-16,472,high_activation,congruent,correct,491
sub-16,473,high_activation,incongruent,correct,451
sub-16,474,high_activation,congruent,correct,502
sub-16,475,high_activation,incongruent,correct,644
sub-16,476,high_activation,congruent,correct,501
sub-16,477,high_activation,incongruent,correct,606
sub-16,478,high_activation,incongruent,correct,455
sub-16,479,high_activation,congruent,correct,461
sub-16,480,high_activation,congruent,correct,533
sub-16,481,high_activation,congruent,correct,658
sub-16,482,high_activation,incongruent,correct,648
sub-16,483,high_activation,congruent,correct,569
sub-16,484,high_activation,congruent,correct,526
sub-16,485,high_activation,congruent,correct,502
sub-16,486,high_activation,congruent,correct,560
sub-16,487,high_activation,congruent,correct,415
sub-16,488,high_activation,incongruent,correct,614
sub-16,489,high_activation,congruent,correct,613
sub-16,490,high_activation,incongruent,correct,509
sub-16,491,high_activation,congruent,correct,561
sub-16,492,high_activation,congruent,correct,605
sub-16,493,high_activation,incongruent,correct,523
sub-16,494,high_activation,incongruent,correct,362
sub-16,495,high_activation,incongruent,correct,347
sub-16,496,high_activation,congruent,correct,416
sub-16,497,high_activation,congruent,correct,463
sub-16,498,high_activation,congruent,correct,280
sub-16,499,high_activation,incongruent,correct,461
sub-16,500,high_activation,incongruent,correct,500
sub-16,501,high_activation,incongruent,correct,557
sub-16,502,high_activation,incongruent,correct,610
sub-16,503,high_activation,congruent,correct,515
sub-16,504,high_activation,incongruent,correct,557
sub-16,505,high_activation,incongruent,correct,610
sub-16,506,high_activation,incongruent,correct,404
sub-16,507,high_activation,incongruent,correct,425
sub-16,508,high_activation,incongruent,correct,538
sub-16,509,high_activation,congruent,correct,448
sub-16,510,high_activation,incongruent,correct,574
sub-16,511,high_activation,incongruent,correct,402
sub-16,512,high_activation,congruent,correct,525
sub-16,513,high_activation,congruent,correct,503
sub-16,514,high_activation,incongruent,correct,521
sub-16,515,high_activation,congruent,correct,502
sub-16,516,high_activation,incongruent,correct,613
sub-16,517,high_activation,incongruent,correct,631
sub-16,518,high_activation,incongruent,correct,425
sub-16,519,high_activation,congruent,correct,463
sub-16,520,high_activation,incongruent,correct,556
sub-16,521,high_activation,congruent,correct,867
sub-16,522,high_activation,incongruent,correct,607
sub-16,523,high_activation,congruent,correct,606
sub-16,524,high_activation,congruent,correct,766
sub-16,525,high_activation,congruent,correct,673
sub-16,526,high_activation,congruent,correct,543
sub-16,527,high_activation,congruent,correct,609
sub-16,528,high_activation,congruent,correct,673
sub-16,529,high_activation,congruent,correct,567
sub-16,530,high_activation,congruent,correct,537
sub-16,531,high_activation,congruent,correct,663
sub-16,532,high_activation,incongruent,correct,637
sub-16,533,high_activation,incongruent,correct,479
sub-16,534,high_activation,congruent,correct,446
sub-16,535,high_activation,congruent,correct,428
sub-16,536,high_activation,incongruent,correct,502
sub-16,537,high_activation,incongruent,correct,508
sub-16,538,high_activation,congruent,correct,494
sub-16,539,high_activation,congruent,correct,418
sub-16,540,high_activation,incongruent,correct,488
sub-16,541,high_activation,incongruent,correct,539
sub-16,542,high_activation,incongruent,correct,557
sub-16,543,high_activation,congruent,correct,458
sub-16,544,high_activation,congruent,correct,441
sub-16,545,high_activation,congruent,correct,360
sub-16,546,high_activation,congruent,correct,485
sub-16,547,high_activation,congruent,correct,388
sub-16,548,high_activation,congruent,correct,345
sub-16,549,high_activation,incongruent,correct,517
sub-16,550,high_activation,incongruent,correct,481
sub-16,551,high_activation,incongruent,correct,537
sub-16,552,high_activation,congruent,correct,525
sub-16,553,high_activation,congruent,correct,544
sub-16,554,high_activation,incongruent,correct,593
sub-16,555,high_activation,congruent,correct,518
sub-16,556,high_activation,incongruent,correct,463
sub-16,557,high_activation,incongruent,correct,626
sub-16,558,high_activation,congruent,correct,555
sub-16,559,high_activation,congruent,correct,581
sub-16,560,high_activation,incongruent,correct,618
sub-16,561,high_activation,incongruent,correct,482
sub-16,562,high_activation,congruent,correct,439
sub-16,563,high_activation,incongruent,correct,507
sub-16,564,high_activation,incongruent,correct,533
sub-16,565,high_activation,congruent,correct,684
sub-16,566,high_activation,incongruent,,NaN
sub-16,567,high_activation,incongruent,correct,629
sub-16,568,high_activation,incongruent,correct,584
sub-16,569,high_activation,incongruent,correct,393
sub-16,570,high_activation,incongruent,correct,461
sub-16,571,high_activation,congruent,correct,345
sub-16,572,high_activation,incongruent,correct,477
sub-16,573,high_activation,congruent,correct,408
sub-16,574,high_activation,incongruent,incorrect,405
sub-16,575,high_activation,incongruent,correct,513
sub-16,576,high_activation,incongruent,correct,502
sub-16,577,high_activation,congruent,correct,479
sub-16,578,high_activation,incongruent,correct,477
sub-16,579,high_activation,congruent,correct,504
sub-16,580,high_activation,incongruent,correct,467
sub-16,581,high_activation,congruent,correct,407
sub-16,582,high_activation,incongruent,correct,397
sub-16,583,high_activation,congruent,correct,707
sub-16,584,high_activation,congruent,correct,465
sub-16,585,high_activation,incongruent,correct,507
sub-16,586,high_activation,congruent,correct,527
sub-16,587,high_activation,incongruent,correct,425
sub-16,588,high_activation,congruent,correct,503
sub-16,589,high_activation,congruent,correct,562
sub-16,590,high_activation,congruent,correct,554
sub-16,591,high_activation,incongruent,correct,760
sub-16,592,high_activation,incongruent,correct,1072
sub-16,593,high_activation,congruent,correct,356
sub-16,594,high_activation,congruent,correct,595
sub-16,595,high_activation,incongruent,correct,414
sub-16,596,high_activation,incongruent,correct,639
sub-16,597,high_activation,congruent,correct,473
sub-16,598,high_activation,incongruent,correct,589
sub-16,599,high_activation,congruent,correct,435
sub-16,600,high_activation,congruent,correct,467
sub-16,601,high_activation,congruent,correct,1122
sub-16,602,high_activation,incongruent,correct,383
sub-16,603,high_activation,congruent,correct,530
sub-16,604,high_activation,congruent,correct,564
sub-16,605,high_activation,congruent,correct,388
sub-16,606,high_activation,congruent,correct,543
sub-16,607,high_activation,congruent,correct,571
sub-16,608,high_activation,congruent,correct,556
sub-16,609,high_activation,incongruent,correct,547
sub-16,610,high_activation,congruent,correct,520
sub-16,611,high_activation,incongruent,correct,508
sub-16,612,high_activation,incongruent,correct,389
sub-16,613,high_activation,congruent,correct,471
sub-16,614,high_activation,incongruent,correct,551
sub-16,615,high_activation,congruent,correct,359
sub-16,616,high_activation,congruent,correct,457
sub-16,617,high_activation,congruent,correct,356
sub-16,618,high_activation,incongruent,correct,404
sub-16,619,high_activation,congruent,correct,440
sub-16,620,high_activation,incongruent,correct,515
sub-16,621,high_activation,congruent,correct,348
sub-16,622,high_activation,congruent,correct,547
sub-16,623,high_activation,incongruent,correct,392
sub-16,624,high_activation,congruent,correct,540
sub-16,625,high_activation,congruent,correct,413
sub-16,626,high_activation,congruent,correct,500
sub-16,627,high_activation,incongruent,correct,504
sub-16,628,high_activation,congruent,correct,567
sub-16,629,high_activation,congruent,correct,511
sub-16,630,high_activation,congruent,correct,546
sub-16,631,high_activation,incongruent,correct,635
sub-16,632,high_activation,incongruent,correct,554
sub-16,633,high_activation,congruent,correct,376
sub-16,634,high_activation,congruent,correct,626
sub-16,635,high_activation,incongruent,correct,651
sub-16,636,high_activation,incongruent,correct,403
sub-16,637,high_activation,congruent,correct,640
sub-16,638,high_activation,incongruent,correct,447
sub-16,639,high_activation,incongruent,correct,467
sub-16,640,high_activation,incongruent,correct,430
sub-16,641,high_activation,incongruent,correct,416
sub-16,642,high_activation,incongruent,correct,453
sub-16,643,high_activation,congruent,correct,350
sub-16,644,high_activation,congruent,correct,540
sub-16,645,high_activation,incongruent,correct,413
sub-16,646,high_activation,congruent,correct,417
sub-16,647,high_activation,congruent,correct,554
sub-16,648,high_activation,congruent,correct,408
sub-16,649,high_activation,congruent,correct,484
sub-16,650,high_activation,congruent,correct,349
sub-16,651,high_activation,congruent,correct,555
sub-16,652,high_activation,incongruent,correct,395
sub-16,653,high_activation,incongruent,incorrect,386
sub-16,654,high_activation,congruent,correct,502
sub-16,655,high_activation,congruent,correct,595
sub-16,656,high_activation,congruent,correct,605
sub-16,657,high_activation,incongruent,correct,551
sub-16,658,high_activation,congruent,correct,528
sub-16,659,high_activation,incongruent,correct,708
sub-16,660,high_activation,congruent,correct,588
sub-16,661,high_activation,congruent,correct,503
sub-16,662,high_activation,congruent,correct,595
sub-16,663,high_activation,congruent,correct,623
sub-16,664,high_activation,congruent,correct,509
sub-16,665,high_activation,incongruent,correct,546
sub-16,666,high_activation,incongruent,correct,387
sub-16,667,high_activation,congruent,correct,483
sub-16,668,high_activation,incongruent,correct,468
sub-16,669,high_activation,congruent,correct,548
sub-16,670,high_activation,congruent,correct,531
sub-16,671,high_activation,incongruent,correct,520
sub-16,672,high_activation,congruent,correct,445
sub-16,673,high_activation,congruent,correct,383
sub-16,674,high_activation,congruent,correct,378
sub-16,675,high_activation,incongruent,correct,500
sub-16,676,high_activation,incongruent,correct,429
sub-16,677,high_activation,incongruent,correct,614
sub-16,678,high_activation,congruent,correct,490
sub-16,679,high_activation,incongruent,correct,591
sub-16,680,high_activation,incongruent,correct,397
sub-16,681,high_activation,incongruent,correct,431
sub-16,682,high_activation,congruent,correct,379
sub-16,683,high_activation,congruent,correct,436
sub-16,684,high_activation,incongruent,correct,430
sub-16,685,high_activation,incongruent,correct,518
sub-16,686,high_activation,congruent,correct,472
sub-16,687,high_activation,congruent,correct,893
sub-16,688,high_activation,congruent,correct,518
sub-16,689,high_activation,incongruent,correct,487
sub-16,690,high_activation,incongruent,correct,634
sub-16,691,high_activation,congruent,correct,565
sub-16,692,high_activation,incongruent,correct,552
sub-16,693,high_activation,incongruent,correct,558
sub-16,694,high_activation,incongruent,correct,496
sub-16,695,high_activation,congruent,correct,642
sub-16,696,high_activation,congruent,correct,393
sub-16,697,high_activation,congruent,correct,587
sub-16,698,high_activation,incongruent,correct,761
sub-16,699,high_activation,incongruent,correct,407
sub-16,700,high_activation,incongruent,correct,411
sub-16,701,high_activation,congruent,correct,410
sub-16,702,high_activation,congruent,correct,451
sub-16,703,high_activation,congruent,correct,470
sub-16,704,high_activation,congruent,correct,449
sub-16,705,high_activation,incongruent,correct,469
sub-16,706,high_activation,congruent,correct,516
sub-16,707,high_activation,incongruent,correct,766
sub-16,708,high_activation,congruent,correct,549
sub-16,709,high_activation,incongruent,correct,715
sub-16,710,high_activation,incongruent,correct,452
sub-16,711,high_activation,incongruent,correct,574
sub-16,712,high_activation,incongruent,correct,656
sub-16,713,high_activation,incongruent,correct,427
sub-16,714,high_activation,congruent,correct,669
sub-16,715,high_activation,congruent,correct,484
sub-16,716,high_activation,incongruent,correct,533
sub-16,717,high_activation,incongruent,correct,460
sub-16,718,high_activation,incongruent,correct,1009
sub-16,719,high_activation,incongruent,correct,470
sub-16,720,high_activation,incongruent,correct,484
sub-16,721,high_activation,congruent,correct,450
sub-16,722,high_activation,incongruent,correct,427
sub-16,723,high_activation,congruent,correct,463
sub-16,724,high_activation,incongruent,correct,438
sub-16,725,high_activation,congruent,correct,523
sub-16,726,high_activation,incongruent,correct,438
sub-16,727,high_activation,congruent,correct,453
sub-16,728,high_activation,incongruent,correct,427
sub-16,729,high_activation,congruent,correct,488
sub-16,730,high_activation,congruent,correct,436
sub-16,731,high_activation,congruent,correct,689
sub-16,732,high_activation,incongruent,correct,544
sub-16,733,high_activation,congruent,correct,582
sub-16,734,high_activation,congruent,correct,403
sub-16,735,high_activation,incongruent,correct,463
sub-16,736,high_activation,congruent,correct,579
sub-16,737,high_activation,incongruent,correct,697
sub-16,738,high_activation,incongruent,correct,414
sub-16,739,high_activation,congruent,correct,556
sub-16,740,high_activation,incongruent,correct,555
sub-16,741,high_activation,congruent,correct,477
sub-16,742,high_activation,congruent,correct,410
sub-16,743,high_activation,congruent,correct,530
sub-16,744,high_activation,incongruent,correct,394
sub-16,745,high_activation,incongruent,correct,460
sub-16,746,high_activation,congruent,incorrect,446
sub-16,747,high_activation,congruent,correct,493
sub-16,748,high_activation,congruent,correct,739
sub-16,749,high_activation,congruent,correct,469
sub-16,750,high_activation,incongruent,correct,426
sub-16,751,high_activation,incongruent,correct,479
sub-16,752,high_activation,incongruent,correct,377
sub-16,753,high_activation,incongruent,correct,591
sub-16,754,high_activation,incongruent,correct,483
sub-16,755,high_activation,congruent,correct,549
sub-16,756,high_activation,congruent,correct,441
sub-16,757,high_activation,incongruent,correct,385
sub-16,758,high_activation,congruent,correct,613
sub-16,759,high_activation,incongruent,correct,495
sub-16,760,high_activation,congruent,correct,545
sub-16,761,high_activation,incongruent,correct,408
sub-16,762,high_activation,incongruent,correct,591
sub-16,763,high_activation,congruent,correct,724
sub-16,764,high_activation,congruent,correct,474
sub-16,765,high_activation,incongruent,correct,510
sub-16,766,high_activation,incongruent,incorrect,309
sub-16,767,high_activation,congruent,correct,458
sub-16,768,high_activation,congruent,correct,528
sub-16,769,high_activation,incongruent,correct,495
sub-16,770,high_activation,congruent,correct,439
sub-16,771,high_activation,congruent,correct,637
sub-16,772,high_activation,congruent,correct,557
sub-16,773,high_activation,incongruent,correct,506
sub-16,774,high_activation,congruent,correct,583
sub-16,775,high_activation,congruent,correct,627
sub-16,776,high_activation,incongruent,correct,563
sub-16,777,high_activation,incongruent,correct,558
sub-16,778,high_activation,congruent,correct,693
sub-16,779,high_activation,congruent,correct,615
sub-16,780,high_activation,congruent,correct,486
sub-16,781,high_activation,congruent,correct,515
sub-16,782,high_activation,incongruent,correct,444
sub-16,783,high_activation,congruent,correct,509
sub-16,1,low_activation,incongruent,correct,792
sub-16,2,low_activation,incongruent,correct,800
sub-16,3,low_activation,congruent,correct,1270
sub-16,4,low_activation,incongruent,correct,728
sub-16,5,low_activation,incongruent,correct,888
sub-16,6,low_activation,incongruent,correct,892
sub-16,7,low_activation,congruent,correct,782
sub-16,8,low_activation,congruent,incorrect,466
sub-16,9,low_activation,incongruent,correct,1224
sub-16,10,low_activation,incongruent,correct,1014
sub-16,11,low_activation,incongruent,correct,1038
sub-16,12,low_activation,congruent,correct,1202
sub-16,13,low_activation,incongruent,correct,1058
sub-16,14,low_activation,incongruent,correct,736
sub-16,15,low_activation,incongruent,correct,986
sub-16,16,low_activation,incongruent,correct,832
sub-16,17,low_activation,congruent,correct,966
sub-16,18,low_activation,congruent,correct,848
sub-16,19,low_activation,congruent,correct,666
sub-16,20,low_activation,incongruent,correct,710
sub-16,21,low_activation,incongruent,correct,970
sub-16,22,low_activation,incongruent,correct,876
sub-16,23,low_activation,incongruent,correct,772
sub-16,24,low_activation,congruent,correct,800
sub-16,25,low_activation,congruent,correct,756
sub-16,26,low_activation,congruent,correct,890
sub-16,27,low_activation,incongruent,correct,738
sub-16,28,low_activation,incongruent,correct,696
sub-16,29,low_activation,incongruent,correct,634
sub-16,30,low_activation,incongruent,correct,700
sub-16,31,low_activation,congruent,correct,636
sub-16,32,low_activation,incongruent,correct,686
sub-16,33,low_activation,congruent,correct,746
sub-16,34,low_activation,congruent,correct,1132
sub-16,35,low_activation,incongruent,correct,734
sub-16,36,low_activation,congruent,correct,580
sub-16,37,low_activation,incongruent,correct,602
sub-16,38,low_activation,incongruent,correct,674
sub-16,39,low_activation,congruent,correct,708
sub-16,40,low_activation,incongruent,correct,462
sub-16,41,low_activation,incongruent,correct,664
sub-16,42,low_activation,incongruent,correct,580
sub-16,43,low_activation,incongruent,correct,558
sub-16,44,low_activation,congruent,correct,728
sub-16,45,low_activation,incongruent,correct,610
sub-16,46,low_activation,incongruent,correct,542
sub-16,47,low_activation,congruent,correct,600
sub-16,48,low_activation,incongruent,correct,612
sub-16,49,low_activation,congruent,correct,584
sub-16,50,low_activation,incongruent,correct,536
sub-16,51,low_activation,congruent,correct,620
sub-16,52,low_activation,incongruent,correct,766
sub-16,53,low_activation,congruent,correct,676
sub-16,54,low_activation,incongruent,correct,672
sub-16,55,low_activation,incongruent,correct,756
sub-16,56,low_activation,congruent,correct,630
sub-16,57,low_activation,congruent,correct,706
sub-16,58,low_activation,congruent,correct,958
sub-16,59,low_activation,incongruent,correct,670
sub-16,60,low_activation,incongruent,correct,570
sub-16,61,low_activation,incongruent,correct,516
sub-16,62,low_activation,incongruent,correct,606
sub-16,63,low_activation,congruent,correct,602
sub-16,64,low_activation,congruent,correct,655
sub-16,65,low_activation,incongruent,correct,698
sub-16,66,low_activation,incongruent,correct,422
sub-16,67,low_activation,incongruent,correct,472
sub-16,68,low_activation,congruent,correct,572
sub-16,69,low_activation,incongruent,correct,572
sub-16,70,low_activation,congruent,correct,648
sub-16,71,low_activation,congruent,correct,734
sub-16,72,low_activation,incongruent,correct,499
sub-16,73,low_activation,incongruent,correct,814
sub-16,74,low_activation,congruent,correct,668
sub-16,75,low_activation,incongruent,correct,602
sub-16,76,low_activation,congruent,correct,628
sub-16,77,low_activation,congruent,correct,542
sub-16,78,low_activation,incongruent,correct,730
sub-16,79,low_activation,incongruent,correct,664
sub-16,80,low_activation,congruent,correct,652
sub-16,81,low_activation,congruent,correct,1130
sub-16,82,low_activation,incongruent,correct,766
sub-16,83,low_activation,congruent,correct,770
sub-16,84,low_activation,incongruent,correct,790
sub-16,85,low_activation,incongruent,correct,500
sub-16,86,low_activation,incongruent,correct,485
sub-16,87,low_activation,congruent,correct,642
sub-16,88,low_activation,incongruent,correct,694
sub-16,89,low_activation,congruent,correct,794
sub-16,90,low_activation,congruent,correct,604
sub-16,91,low_activation,incongruent,correct,642
sub-16,92,low_activation,incongruent,correct,654
sub-16,93,low_activation,congruent,correct,513
sub-16,94,low_activation,incongruent,correct,584
sub-16,95,low_activation,congruent,correct,998
sub-16,96,low_activation,incongruent,correct,598
sub-16,97,low_activation,incongruent,correct,662
sub-16,98,low_activation,congruent,correct,654
sub-16,99,low_activation,incongruent,correct,634
sub-16,100,low_activation,congruent,correct,704
sub-16,101,low_activation,incongruent,correct,534
sub-16,102,low_activation,incongruent,correct,952
sub-16,103,low_activation,incongruent,correct,512
sub-16,104,low_activation,congruent,correct,676
sub-16,105,low_activation,incongruent,correct,752
sub-16,106,low_activation,congruent,correct,798
sub-16,107,low_activation,congruent,correct,672
sub-16,108,low_activation,incongruent,correct,718
sub-16,109,low_activation,incongruent,correct,992
sub-16,110,low_activation,congruent,correct,754
sub-16,111,low_activation,congruent,correct,678
sub-16,112,low_activation,incongruent,correct,670
sub-16,113,low_activation,incongruent,correct,684
sub-16,114,low_activation,congruent,correct,760
sub-16,115,low_activation,incongruent,correct,709
sub-16,116,low_activation,incongruent,correct,1076
sub-16,117,low_activation,congruent,correct,826
sub-16,118,low_activation,incongruent,correct,758
sub-16,119,low_activation,incongruent,correct,840
sub-16,120,low_activation,congruent,correct,606
sub-16,121,low_activation,congruent,correct,932
sub-16,122,low_activation,congruent,correct,646
sub-16,123,low_activation,incongruent,correct,644
sub-16,124,low_activation,incongruent,correct,592
sub-16,125,low_activation,congruent,correct,716
sub-16,126,low_activation,congruent,correct,830
sub-16,127,low_activation,incongruent,correct,696
sub-16,128,low_activation,congruent,correct,1046
sub-16,129,low_activation,congruent,correct,628
sub-16,130,low_activation,congruent,correct,704
sub-16,131,low_activation,incongruent,correct,1000
sub-16,132,low_activation,incongruent,correct,888
sub-16,133,low_activation,incongruent,correct,710
sub-16,134,low_activation,congruent,correct,794
sub-16,135,low_activation,incongruent,correct,768
sub-16,136,low_activation,incongruent,correct,1278
sub-16,137,low_activation,congruent,correct,688
sub-16,138,low_activation,congruent,correct,700
sub-16,139,low_activation,incongruent,correct,1188
sub-16,140,low_activation,incongruent,correct,582
sub-16,141,low_activation,congruent,correct,556
sub-16,142,low_activation,congruent,correct,656
sub-16,143,low_activation,incongruent,correct,718
sub-16,144,low_activation,incongruent,correct,846
sub-16,145,low_activation,incongruent,correct,780
sub-16,146,low_activation,congruent,correct,778
sub-16,147,low_activation,incongruent,correct,870
sub-16,148,low_activation,congruent,correct,624
sub-16,149,low_activation,incongruent,correct,694
sub-16,150,low_activation,incongruent,correct,1206
sub-16,151,low_activation,congruent,correct,934
sub-16,152,low_activation,incongruent,correct,740
sub-16,153,low_activation,congruent,correct,662
sub-16,154,low_activation,congruent,correct,1084
sub-16,155,low_activation,incongruent,,NaN
sub-16,156,low_activation,incongruent,correct,942
sub-16,157,low_activation,congruent,correct,1042
sub-16,158,low_activation,congruent,correct,960
sub-16,159,low_activation,congruent,correct,858
sub-16,160,low_activation,congruent,correct,784
sub-16,161,low_activation,incongruent,correct,1080
sub-16,162,low_activation,incongruent,correct,754
sub-16,163,low_activation,congruent,correct,844
sub-16,164,low_activation,incongruent,correct,784
sub-16,165,low_activation,congruent,correct,654
sub-16,166,low_activation,incongruent,correct,966
sub-16,167,low_activation,incongruent,correct,662
sub-16,168,low_activation,congruent,,NaN
sub-16,169,low_activation,incongruent,correct,918
sub-16,170,low_activation,congruent,,NaN
sub-16,171,low_activation,incongruent,correct,786
sub-16,172,low_activation,congruent,,NaN
sub-16,173,low_activation,congruent,correct,804
sub-16,174,low_activation,congruent,correct,586
sub-16,175,low_activation,congruent,correct,620
sub-16,176,low_activation,incongruent,correct,670
sub-16,177,low_activation,incongruent,correct,660
sub-16,178,low_activation,congruent,correct,752
sub-16,179,low_activation,incongruent,correct,652
sub-16,180,low_activation,congruent,correct,530
sub-16,181,low_activation,incongruent,correct,917
sub-16,182,low_activation,congruent,correct,904
sub-16,183,low_activation,incongruent,correct,861
sub-16,184,low_activation,incongruent,correct,750
sub-16,185,low_activation,congruent,correct,548
sub-16,186,low_activation,congruent,correct,764
sub-16,187,low_activation,congruent,correct,742
sub-16,188,low_activation,congruent,correct,638
sub-16,189,low_activation,incongruent,correct,614
sub-16,190,low_activation,congruent,correct,764
sub-16,191,low_activation,congruent,correct,596
sub-16,192,low_activation,congruent,correct,538
sub-16,193,low_activation,congruent,correct,568
sub-16,194,low_activation,incongruent,correct,562
sub-16,195,low_activation,congruent,correct,1096
sub-16,196,low_activation,incongruent,correct,760
sub-16,197,low_activation,incongruent,correct,944
sub-16,198,low_activation,congruent,correct,738
sub-16,199,low_activation,incongruent,correct,852
sub-16,200,low_activation,incongruent,correct,640
sub-16,201,low_activation,congruent,correct,1015
sub-16,202,low_activation,congruent,correct,792
sub-16,203,low_activation,incongruent,correct,764
sub-16,204,low_activation,incongruent,correct,1064
sub-16,205,low_activation,congruent,correct,752
sub-16,206,low_activation,incongruent,correct,826
sub-16,207,low_activation,incongruent,correct,948
sub-16,208,low_activation,congruent,correct,778
sub-16,209,low_activation,incongruent,correct,664
sub-16,210,low_activation,congruent,correct,912
sub-16,211,low_activation,congruent,correct,504
sub-16,212,low_activation,incongruent,correct,664
sub-16,213,low_activation,congruent,correct,826
sub-16,214,low_activation,incongruent,correct,922
sub-16,215,low_activation,incongruent,correct,678
sub-16,216,low_activation,incongruent,correct,1128
sub-16,217,low_activation,incongruent,correct,622
sub-16,218,low_activation,congruent,correct,720
sub-16,219,low_activation,incongruent,correct,728
sub-16,220,low_activation,congruent,correct,724
sub-16,221,low_activation,congruent,correct,580
sub-16,222,low_activation,incongruent,correct,718
sub-16,223,low_activation,congruent,correct,686
sub-16,224,low_activation,congruent,correct,696
sub-16,225,low_activation,incongruent,correct,812
sub-16,226,low_activation,congruent,correct,634
sub-16,227,low_activation,incongruent,correct,748
sub-16,228,low_activation,incongruent,correct,654
sub-16,229,low_activation,congruent,correct,744
sub-16,230,low_activation,congruent,correct,770
sub-16,231,low_activation,incongruent,correct,996
sub-16,232,low_activation,incongruent,correct,866
sub-16,233,low_activation,incongruent,correct,818
sub-16,234,low_activation,incongruent,correct,812
sub-16,235,low_activation,incongruent,correct,1136
sub-16,236,low_activation,incongruent,correct,962
sub-16,237,low_activation,congruent,correct,1040
sub-16,238,low_activation,congruent,correct,718
sub-16,239,low_activation,congruent,correct,708
sub-16,240,low_activation,incongruent,correct,650
sub-16,241,low_activation,incongruent,correct,712
sub-16,242,low_activation,incongruent,correct,728
sub-16,243,low_activation,incongruent,correct,902
sub-16,244,low_activation,congruent,correct,668
sub-16,245,low_activation,incongruent,correct,568
sub-16,246,low_activation,incongruent,correct,634
sub-16,247,low_activation,congruent,correct,752
sub-16,248,low_activation,congruent,correct,826
sub-16,249,low_activation,incongruent,correct,1244
sub-16,250,low_activation,congruent,correct,926
sub-16,251,low_activation,incongruent,correct,1418
sub-16,252,low_activation,incongruent,correct,686
sub-16,253,low_activation,incongruent,correct,1054
sub-16,254,low_activation,incongruent,correct,732
sub-16,255,low_activation,incongruent,correct,1156
sub-16,256,low_activation,congruent,correct,742
sub-16,257,low_activation,incongruent,correct,740
sub-16,258,low_activation,incongruent,correct,844
sub-16,259,low_activation,congruent,correct,682
sub-16,260,low_activation,congruent,correct,718
sub-16,261,low_activation,congruent,correct,652
sub-16,262,low_activation,incongruent,correct,668
sub-16,263,low_activation,congruent,correct,708
sub-16,264,low_activation,congruent,correct,573
sub-16,265,low_activation,congruent,correct,616
sub-16,266,low_activation,congruent,correct,566
sub-16,267,low_activation,incongruent,correct,666
sub-16,268,low_activation,congruent,correct,658
sub-16,269,low_activation,congruent,correct,640
sub-16,270,low_activation,congruent,correct,708
sub-16,271,low_activation,congruent,correct,556
sub-16,272,low_activation,incongruent,correct,568
sub-16,273,low_activation,incongruent,correct,574
sub-16,274,low_activation,incongruent,correct,624
sub-16,275,low_activation,congruent,correct,546
sub-16,276,low_activation,congruent,correct,588
sub-16,277,low_activation,congruent,correct,564
sub-16,278,low_activation,incongruent,correct,838
sub-16,279,low_activation,incongruent,correct,528
sub-16,280,low_activation,incongruent,correct,616
sub-16,281,low_activation,incongruent,correct,594
sub-16,282,low_activation,incongruent,correct,590
sub-16,283,low_activation,incongruent,correct,756
sub-16,284,low_activation,incongruent,correct,638
sub-16,285,low_activation,incongruent,correct,660
sub-16,286,low_activation,incongruent,correct,622
sub-16,287,low_activation,congruent,correct,682
sub-16,288,low_activation,congruent,correct,966
sub-16,289,low_activation,incongruent,correct,826
sub-16,290,low_activation,congruent,correct,648
sub-16,291,low_activation,incongruent,correct,690
sub-16,292,low_activation,congruent,correct,684
sub-16,293,low_activation,congruent,correct,536
sub-16,294,low_activation,incongruent,correct,684
sub-16,295,low_activation,incongruent,correct,696
sub-16,296,low_activation,incongruent,correct,724
sub-16,297,low_activation,incongruent,correct,680
sub-16,298,low_activation,incongruent,correct,684
sub-16,299,low_activation,incongruent,correct,668
sub-16,300,low_activation,incongruent,correct,684
sub-16,301,low_activation,incongruent,correct,846
sub-16,302,low_activation,incongruent,correct,654
sub-16,303,low_activation,congruent,correct,660
sub-16,304,low_activation,congruent,correct,602
sub-16,305,low_activation,incongruent,correct,628
sub-16,306,low_activation,congruent,correct,766
sub-16,307,low_activation,incongruent,correct,728
sub-16,308,low_activation,incongruent,correct,658
sub-16,309,low_activation,incongruent,correct,728
sub-16,310,low_activation,congruent,correct,536
sub-16,311,low_activation,incongruent,correct,818
sub-16,312,low_activation,incongruent,correct,694
sub-16,313,low_activation,congruent,,NaN
sub-16,314,low_activation,congruent,correct,660
sub-16,315,low_activation,congruent,correct,700
sub-16,316,low_activation,incongruent,correct,1018
sub-16,317,low_activation,congruent,correct,674
sub-16,318,low_activation,congruent,correct,846
sub-16,319,low_activation,congruent,correct,830
sub-16,320,low_activation,congruent,correct,686
sub-16,321,low_activation,incongruent,,NaN
sub-16,322,low_activation,incongruent,correct,924
sub-16,323,low_activation,incongruent,correct,820
sub-16,324,low_activation,incongruent,correct,686
sub-16,325,low_activation,congruent,correct,778
sub-16,326,low_activation,incongruent,correct,702
sub-16,327,low_activation,congruent,correct,678
sub-16,328,low_activation,congruent,,NaN
sub-16,329,low_activation,incongruent,correct,1004
sub-16,330,low_activation,congruent,correct,636
sub-16,331,low_activation,congruent,correct,490
sub-16,332,low_activation,congruent,correct,628
sub-16,333,low_activation,congruent,correct,742
sub-16,334,low_activation,incongruent,correct,708
sub-16,335,low_activation,congruent,correct,666
sub-16,336,low_activation,incongruent,correct,664
sub-16,337,low_activation,congruent,correct,656
sub-16,338,low_activation,congruent,correct,652
sub-16,339,low_activation,incongruent,correct,708
sub-16,340,low_activation,incongruent,correct,666
sub-16,341,low_activation,congruent,correct,554
sub-16,342,low_activation,incongruent,correct,504
sub-16,343,low_activation,incongruent,correct,504
sub-16,344,low_activation,incongruent,correct,534
sub-16,345,low_activation,incongruent,correct,688
sub-16,346,low_activation,congruent,,NaN
sub-16,347,low_activation,incongruent,correct,680
sub-16,348,low_activation,incongruent,correct,696
sub-16,349,low_activation,incongruent,correct,706
sub-16,350,low_activation,incongruent,correct,646
sub-16,351,low_activation,congruent,correct,796
sub-16,352,low_activation,incongruent,correct,624
sub-16,353,low_activation,incongruent,correct,634
sub-16,354,low_activation,congruent,correct,746
sub-16,355,low_activation,incongruent,correct,678
sub-16,356,low_activation,congruent,correct,958
sub-16,357,low_activation,incongruent,correct,682
sub-16,358,low_activation,incongruent,correct,774
sub-16,359,low_activation,congruent,correct,810
sub-16,360,low_activation,congruent,correct,850
sub-16,361,low_activation,incongruent,correct,758
sub-16,362,low_activation,congruent,correct,644
sub-16,363,low_activation,congruent,correct,628
sub-16,364,low_activation,congruent,correct,884
sub-16,365,low_activation,incongruent,correct,749
sub-16,366,low_activation,incongruent,correct,752
sub-16,367,low_activation,congruent,correct,762
sub-16,368,low_activation,congruent,correct,704
sub-16,369,low_activation,congruent,correct,568
sub-16,370,low_activation,congruent,correct,514
sub-16,371,low_activation,incongruent,correct,690
sub-16,372,low_activation,incongruent,correct,598
sub-16,373,low_activation,congruent,correct,478
sub-16,374,low_activation,congruent,correct,646
sub-16,375,low_activation,incongruent,correct,612
sub-16,376,low_activation,incongruent,correct,508
sub-16,377,low_activation,incongruent,correct,580
sub-16,378,low_activation,congruent,correct,486
sub-16,379,low_activation,incongruent,correct,620
sub-16,380,low_activation,incongruent,incorrect,616
sub-16,381,low_activation,incongruent,correct,648
sub-16,382,low_activation,incongruent,correct,774
sub-16,383,low_activation,congruent,correct,572
sub-16,384,low_activation,incongruent,correct,766
sub-16,385,low_activation,congruent,correct,742
sub-16,386,low_activation,incongruent,correct,582
sub-16,387,low_activation,incongruent,correct,972
sub-16,388,low_activation,congruent,correct,634
sub-16,389,low_activation,congruent,correct,598
sub-16,390,low_activation,congruent,correct,574
sub-16,391,low_activation,congruent,correct,558
sub-16,392,low_activation,congruent,correct,688
sub-16,393,low_activation,congruent,correct,602
sub-16,394,low_activation,incongruent,correct,610
sub-16,395,low_activation,incongruent,correct,768
sub-16,396,low_activation,congruent,correct,604
sub-16,397,low_activation,incongruent,correct,628
sub-16,398,low_activation,congruent,correct,540
sub-16,399,low_activation,incongruent,correct,1094
sub-16,400,low_activation,congruent,correct,456
sub-16,401,low_activation,incongruent,correct,644
sub-16,402,low_activation,congruent,correct,700
sub-16,403,low_activation,congruent,correct,780
sub-16,404,low_activation,incongruent,,NaN
sub-16,405,low_activation,congruent,correct,826
sub-16,406,low_activation,incongruent,correct,956
sub-16,407,low_activation,incongruent,correct,795
sub-16,408,low_activation,incongruent,correct,586
sub-16,409,low_activation,incongruent,correct,650
sub-16,410,low_activation,congruent,correct,900
sub-16,411,low_activation,congruent,correct,506
sub-16,412,low_activation,congruent,correct,546
sub-16,413,low_activation,incongruent,correct,528
sub-16,414,low_activation,congruent,correct,460
sub-16,415,low_activation,incongruent,correct,550
sub-16,416,low_activation,congruent,correct,874
sub-16,417,low_activation,incongruent,correct,645
sub-16,418,low_activation,incongruent,correct,642
sub-16,419,low_activation,congruent,correct,632
sub-16,420,low_activation,congruent,correct,632
sub-16,421,low_activation,incongruent,correct,850
sub-16,422,low_activation,incongruent,correct,728
sub-16,423,low_activation,congruent,correct,690
sub-16,424,low_activation,congruent,correct,638
sub-16,425,low_activation,congruent,correct,708
sub-16,426,low_activation,incongruent,correct,560
sub-16,427,low_activation,congruent,correct,640
sub-16,428,low_activation,congruent,correct,848
sub-16,429,low_activation,congruent,correct,684
sub-16,430,low_activation,incongruent,correct,500
sub-16,431,low_activation,incongruent,correct,494
sub-16,432,low_activation,congruent,correct,512
sub-16,433,low_activation,congruent,correct,512
sub-16,434,low_activation,incongruent,correct,667
sub-16,435,low_activation,incongruent,correct,548
sub-16,436,low_activation,congruent,correct,784
sub-16,437,low_activation,incongruent,correct,506
sub-16,438,low_activation,congruent,correct,576
sub-16,439,low_activation,incongruent,correct,632
sub-16,440,low_activation,congruent,correct,656
sub-16,441,low_activation,congruent,correct,636
sub-16,442,low_activation,incongruent,correct,648
sub-16,443,low_activation,congruent,correct,608
sub-16,444,low_activation,incongruent,correct,678
sub-16,445,low_activation,congruent,correct,638
sub-16,446,low_activation,incongruent,correct,554
sub-16,447,low_activation,congruent,correct,600
sub-16,448,low_activation,incongruent,correct,572
sub-16,449,low_activation,congruent,correct,704
sub-16,450,low_activation,congruent,correct,694
sub-16,451,low_activation,congruent,correct,636
sub-16,452,low_activation,congruent,correct,657
sub-16,453,low_activation,congruent,correct,681
sub-16,454,low_activation,congruent,correct,688
sub-16,455,low_activation,congruent,correct,733
sub-16,456,low_activation,congruent,,NaN
sub-16,457,low_activation,congruent,correct,544
sub-16,458,low_activation,incongruent,correct,648
sub-16,459,low_activation,incongruent,correct,654
sub-16,460,low_activation,congruent,correct,606
sub-16,461,low_activation,incongruent,correct,574
sub-16,462,low_activation,congruent,correct,573
sub-16,463,low_activation,congruent,correct,1004
sub-16,464,low_activation,congruent,correct,848
sub-16,465,low_activation,incongruent,correct,742
sub-16,466,low_activation,congruent,correct,852
sub-16,467,low_activation,congruent,correct,680
sub-16,468,low_activation,incongruent,correct,656
sub-16,469,low_activation,incongruent,correct,618
sub-16,470,low_activation,congruent,correct,924
sub-16,471,low_activation,congruent,correct,752
sub-16,472,low_activation,congruent,correct,620
sub-16,473,low_activation,congruent,correct,556
sub-16,474,low_activation,congruent,correct,724
sub-16,475,low_activation,congruent,correct,676
sub-16,476,low_activation,incongruent,correct,640
sub-16,477,low_activation,congruent,correct,504
sub-16,478,low_activation,congruent,correct,754
sub-16,479,low_activation,incongruent,correct,944
sub-16,480,low_activation,congruent,correct,918
sub-16,481,low_activation,incongruent,correct,700
sub-16,482,low_activation,incongruent,correct,658
sub-16,483,low_activation,congruent,correct,626
sub-16,484,low_activation,incongruent,correct,578
sub-16,485,low_activation,incongruent,correct,744
sub-16,486,low_activation,congruent,correct,618
sub-16,487,low_activation,incongruent,correct,590
sub-16,488,low_activation,congruent,correct,400
sub-16,489,low_activation,incongruent,correct,618
sub-16,490,low_activation,incongruent,correct,564
sub-16,491,low_activation,congruent,correct,482
sub-16,492,low_activation,incongruent,correct,872
sub-16,493,low_activation,congruent,correct,700
sub-16,494,low_activation,congruent,correct,616
sub-16,495,low_activation,congruent,correct,608
sub-16,496,low_activation,incongruent,correct,864
sub-16,497,low_activation,incongruent,correct,602
sub-16,498,low_activation,incongruent,correct,548
sub-16,499,low_activation,incongruent,correct,598
sub-16,500,low_activation,incongruent,correct,656
sub-16,501,low_activation,incongruent,correct,682
sub-16,502,low_activation,congruent,correct,562
sub-16,503,low_activation,congruent,correct,664
sub-16,504,low_activation,incongruent,incorrect,601
sub-16,505,low_activation,incongruent,correct,588
sub-16,506,low_activation,incongruent,correct,534
sub-16,507,low_activation,incongruent,correct,628
sub-16,508,low_activation,incongruent,correct,658
sub-16,509,low_activation,congruent,correct,456
sub-16,510,low_activation,congruent,correct,608
sub-16,511,low_activation,incongruent,correct,758
sub-16,512,low_activation,congruent,correct,654
sub-16,513,low_activation,incongruent,correct,716
sub-16,514,low_activation,incongruent,correct,902
sub-16,515,low_activation,incongruent,correct,1326
sub-16,516,low_activation,congruent,correct,682
sub-16,517,low_activation,incongruent,correct,656
sub-16,518,low_activation,incongruent,correct,545
sub-16,519,low_activation,congruent,correct,650
sub-16,520,low_activation,congruent,correct,742
sub-16,521,low_activation,congruent,correct,668
sub-16,522,low_activation,incongruent,correct,740
sub-16,523,low_activation,incongruent,correct,541
sub-16,524,low_activation,congruent,correct,762
sub-16,525,low_activation,congruent,correct,568
sub-16,526,low_activation,congruent,correct,630
sub-16,527,low_activation,incongruent,correct,762
sub-16,528,low_activation,congruent,correct,370
sub-16,529,low_activation,incongruent,correct,310
sub-16,530,low_activation,incongruent,correct,498
sub-16,531,low_activation,incongruent,correct,898
sub-16,532,low_activation,congruent,correct,472
sub-16,533,low_activation,incongruent,correct,646
sub-16,534,low_activation,congruent,correct,962
sub-16,535,low_activation,congruent,correct,516
sub-16,536,low_activation,incongruent,correct,458
sub-16,537,low_activation,congruent,correct,554
sub-16,538,low_activation,congruent,correct,689
sub-16,539,low_activation,incongruent,correct,1108
sub-16,540,low_activation,congruent,correct,656
sub-16,541,low_activation,congruent,correct,500
sub-16,542,low_activation,congruent,correct,538
sub-16,543,low_activation,incongruent,,NaN
sub-16,544,low_activation,incongruent,correct,754
sub-16,545,low_activation,congruent,correct,672
sub-16,546,low_activation,congruent,correct,862
sub-16,547,low_activation,congruent,correct,512
sub-16,548,low_activation,incongruent,correct,716
sub-16,549,low_activation,incongruent,correct,750
sub-16,550,low_activation,congruent,correct,566
sub-16,551,low_activation,incongruent,correct,594
sub-16,552,low_activation,congruent,correct,636
sub-16,553,low_activation,incongruent,,NaN
sub-16,554,low_activation,incongruent,correct,544
sub-16,555,low_activation,congruent,correct,750
sub-16,556,low_activation,congruent,correct,622
sub-16,557,low_activation,incongruent,incorrect,686
sub-16,558,low_activation,incongruent,correct,590
sub-16,559,low_activation,incongruent,correct,684
sub-16,560,low_activation,congruent,correct,934
sub-16,561,low_activation,incongruent,correct,746
sub-16,562,low_activation,incongruent,correct,782
sub-16,563,low_activation,congruent,correct,748
sub-16,564,low_activation,congruent,correct,952
sub-16,565,low_activation,congruent,correct,1001
sub-16,566,low_activation,incongruent,correct,696
sub-16,567,low_activation,incongruent,correct,1084
sub-16,568,low_activation,congruent,correct,590
sub-16,569,low_activation,incongruent,correct,752
sub-16,570,low_activation,incongruent,correct,902
sub-16,571,low_activation,congruent,correct,644
sub-16,572,low_activation,incongruent,correct,842
sub-16,573,low_activation,incongruent,correct,730
sub-16,574,low_activation,congruent,correct,1166
sub-16,575,low_activation,congruent,correct,676
sub-16,576,low_activation,congruent,correct,676
sub-16,577,low_activation,congruent,correct,750
sub-16,578,low_activation,congruent,correct,730
sub-16,579,low_activation,incongruent,correct,664
sub-16,580,low_activation,incongruent,correct,710
sub-16,581,low_activation,congruent,correct,618
sub-16,582,low_activation,incongruent,correct,684
sub-16,583,low_activation,congruent,correct,748
sub-16,584,low_activation,congruent,correct,718
sub-16,585,low_activation,incongruent,correct,645
sub-16,586,low_activation,incongruent,correct,714
sub-16,587,low_activation,congruent,correct,628
sub-16,588,low_activation,congruent,correct,462
sub-16,589,low_activation,congruent,correct,900
sub-16,590,low_activation,incongruent,correct,764
sub-16,591,low_activation,incongruent,correct,762
sub-16,592,low_activation,incongruent,correct,1074
sub-16,593,low_activation,incongruent,correct,1194
sub-16,594,low_activation,incongruent,correct,1158
sub-16,595,low_activation,congruent,correct,652
sub-16,596,low_activation,incongruent,,NaN
sub-16,597,low_activation,congruent,correct,654
sub-16,598,low_activation,congruent,correct,744
sub-16,599,low_activation,congruent,correct,620
sub-16,600,low_activation,incongruent,correct,644
sub-16,601,low_activation,congruent,correct,742
sub-16,602,low_activation,congruent,correct,1146
sub-16,603,low_activation,congruent,correct,470
sub-16,604,low_activation,congruent,correct,624
sub-16,605,low_activation,incongruent,correct,652
sub-16,606,low_activation,incongruent,correct,762
sub-16,607,low_activation,congruent,correct,712
sub-16,608,low_activation,incongruent,correct,672
sub-16,609,low_activation,incongruent,correct,616
sub-16,610,low_activation,incongruent,correct,714
sub-16,611,low_activation,congruent,correct,668
sub-16,612,low_activation,congruent,correct,476
sub-16,613,low_activation,incongruent,correct,722
sub-16,614,low_activation,congruent,,NaN
sub-16,615,low_activation,congruent,correct,590
sub-16,616,low_activation,congruent,correct,648
sub-16,617,low_activation,incongruent,correct,732
sub-16,618,low_activation,incongruent,correct,948
sub-16,619,low_activation,congruent,correct,680
sub-16,620,low_activation,incongruent,correct,622
sub-16,621,low_activation,congruent,correct,605
sub-16,622,low_activation,incongruent,correct,940
sub-16,623,low_activation,congruent,correct,684
sub-16,624,low_activation,congruent,correct,472
sub-16,625,low_activation,congruent,correct,662
sub-16,626,low_activation,congruent,correct,590
sub-16,627,low_activation,congruent,correct,824
sub-16,628,low_activation,incongruent,correct,728
sub-16,629,low_activation,congruent,correct,782
sub-16,630,low_activation,incongruent,correct,1016
sub-16,631,low_activation,incongruent,correct,786
sub-16,632,low_activation,incongruent,correct,746
sub-16,633,low_activation,incongruent,correct,680
sub-16,634,low_activation,incongruent,correct,686
sub-16,635,low_activation,incongruent,correct,612
sub-16,636,low_activation,congruent,correct,594
sub-16,637,low_activation,incongruent,correct,596
sub-16,638,low_activation,congruent,correct,834
sub-16,639,low_activation,congruent,correct,552
sub-16,640,low_activation,congruent,correct,620
sub-16,641,low_activation,congruent,correct,534
sub-16,642,low_activation,incongruent,correct,676
sub-16,643,low_activation,congruent,correct,884
sub-16,644,low_activation,congruent,correct,672
sub-16,645,low_activation,congruent,correct,1106
sub-16,646,low_activation,congruent,correct,615
sub-16,647,low_activation,congruent,correct,754
sub-16,648,low_activation,congruent,correct,578
sub-16,649,low_activation,incongruent,correct,522
sub-16,650,low_activation,incongruent,correct,722
sub-16,651,low_activation,incongruent,correct,888
sub-16,652,low_activation,congruent,correct,738
sub-16,653,low_activation,incongruent,correct,770
sub-16,654,low_activation,congruent,correct,830
sub-16,655,low_activation,congruent,correct,558
sub-16,656,low_activation,incongruent,correct,849
sub-16,657,low_activation,incongruent,correct,610
sub-16,658,low_activation,incongruent,correct,882
sub-16,659,low_activation,incongruent,correct,658
sub-16,660,low_activation,incongruent,correct,486
sub-16,661,low_activation,congruent,correct,768
sub-16,662,low_activation,congruent,correct,538
sub-16,663,low_activation,incongruent,correct,942
sub-16,664,low_activation,incongruent,correct,476
sub-16,665,low_activation,congruent,correct,534
sub-16,666,low_activation,congruent,correct,742
sub-16,667,low_activation,congruent,correct,612
sub-16,668,low_activation,congruent,correct,626
sub-16,669,low_activation,congruent,correct,702
sub-16,670,low_activation,congruent,correct,612
sub-16,671,low_activation,incongruent,correct,1178
sub-16,672,low_activation,incongruent,correct,550
sub-16,673,low_activation,congruent,correct,680
sub-16,674,low_activation,congruent,correct,532
sub-16,675,low_activation,congruent,correct,580
sub-16,676,low_activation,incongruent,correct,584
sub-16,677,low_activation,incongruent,correct,654
sub-16,678,low_activation,incongruent,correct,800
sub-16,679,low_activation,incongruent,correct,566
sub-16,680,low_activation,incongruent,correct,664
sub-16,681,low_activation,incongruent,correct,488
sub-16,682,low_activation,congruent,correct,500
sub-16,683,low_activation,incongruent,correct,562
sub-16,684,low_activation,incongruent,correct,692
sub-16,685,low_activation,congruent,correct,609
sub-16,686,low_activation,congruent,correct,708
sub-16,687,low_activation,incongruent,correct,662
sub-16,688,low_activation,incongruent,correct,724
sub-16,689,low_activation,incongruent,correct,681
sub-16,690,low_activation,congruent,correct,558
sub-16,691,low_activation,congruent,correct,522
sub-16,692,low_activation,congruent,,NaN
sub-16,693,low_activation,congruent,correct,986
sub-16,694,low_activation,incongruent,correct,656
sub-16,695,low_activation,incongruent,correct,534
sub-16,696,low_activation,incongruent,correct,550
sub-16,697,low_activation,congruent,,NaN
sub-16,698,low_activation,incongruent,correct,614
sub-16,699,low_activation,congruent,correct,708
sub-16,700,low_activation,incongruent,correct,620
sub-16,701,low_activation,incongruent,correct,714
sub-16,702,low_activation,incongruent,correct,708
sub-16,703,low_activation,incongruent,correct,1096
sub-16,704,low_activation,incongruent,correct,666
sub-16,705,low_activation,congruent,,NaN
sub-16,706,low_activation,congruent,correct,708
sub-16,707,low_activation,congruent,correct,772
sub-16,708,low_activation,incongruent,correct,646
sub-16,709,low_activation,incongruent,correct,934
sub-16,710,low_activation,congruent,correct,686
sub-16,711,low_activation,congruent,correct,650
sub-16,712,low_activation,incongruent,correct,725
sub-16,713,low_activation,incongruent,correct,658
sub-16,714,low_activation,congruent,correct,702
sub-16,715,low_activation,congruent,correct,588
sub-16,716,low_activation,congruent,correct,648
sub-16,717,low_activation,incongruent,correct,620
