sub_ID,trial_number,physical_activation,trial_congruency,resp_correctness,reaction_times
sub-25,1,high_activation,incongruent,correct,680
sub-25,2,high_activation,incongruent,correct,389
sub-25,3,high_activation,congruent,correct,440
sub-25,4,high_activation,incongruent,correct,344
sub-25,5,high_activation,congruent,correct,344
sub-25,6,high_activation,incongruent,correct,467
sub-25,7,high_activation,congruent,correct,345
sub-25,8,high_activation,incongruent,correct,495
sub-25,9,high_activation,congruent,correct,360
sub-25,10,high_activation,incongruent,correct,377
sub-25,11,high_activation,congruent,correct,358
sub-25,12,high_activation,incongruent,correct,398
sub-25,13,high_activation,incongruent,correct,396
sub-25,14,high_activation,incongruent,correct,322
sub-25,15,high_activation,congruent,correct,392
sub-25,16,high_activation,congruent,correct,317
sub-25,17,high_activation,congruent,correct,347
sub-25,18,high_activation,congruent,correct,330
sub-25,19,high_activation,congruent,correct,409
sub-25,20,high_activation,incongruent,incorrect,304
sub-25,21,high_activation,incongruent,correct,408
sub-25,22,high_activation,congruent,correct,412
sub-25,23,high_activation,congruent,correct,391
sub-25,24,high_activation,congruent,correct,414
sub-25,25,high_activation,incongruent,correct,463
sub-25,26,high_activation,incongruent,correct,370
sub-25,27,high_activation,congruent,correct,343
sub-25,28,high_activation,incongruent,correct,341
sub-25,29,high_activation,incongruent,correct,371
sub-25,30,high_activation,congruent,correct,346
sub-25,31,high_activation,congruent,correct,437
sub-25,32,high_activation,congruent,correct,352
sub-25,33,high_activation,incongruent,correct,426
sub-25,34,high_activation,congruent,correct,381
sub-25,35,high_activation,congruent,correct,459
sub-25,36,high_activation,congruent,correct,342
sub-25,37,high_activation,congruent,correct,356
sub-25,38,high_activation,incongruent,correct,414
sub-25,39,high_activation,congruent,correct,302
sub-25,40,high_activation,incongruent,correct,386
sub-25,41,high_activation,incongruent,correct,440
sub-25,42,high_activation,incongruent,correct,332
sub-25,43,high_activation,incongruent,correct,437
sub-25,44,high_activation,congruent,correct,306
sub-25,45,high_activation,congruent,correct,328
sub-25,46,high_activation,congruent,correct,419
sub-25,47,high_activation,congruent,correct,229
sub-25,48,high_activation,congruent,incorrect,434
sub-25,49,high_activation,congruent,correct,443
sub-25,50,high_activation,incongruent,incorrect,292
sub-25,51,high_activation,congruent,incorrect,458
sub-25,52,high_activation,incongruent,correct,378
sub-25,53,high_activation,incongruent,correct,363
sub-25,54,high_activation,congruent,correct,365
sub-25,55,high_activation,incongruent,correct,430
sub-25,56,high_activation,incongruent,correct,421
sub-25,57,high_activation,congruent,correct,506
sub-25,58,high_activation,incongruent,correct,423
sub-25,59,high_activation,incongruent,correct,373
sub-25,60,high_activation,incongruent,correct,331
sub-25,61,high_activation,congruent,correct,335
sub-25,62,high_activation,congruent,correct,359
sub-25,63,high_activation,congruent,correct,335
sub-25,64,high_activation,incongruent,correct,468
sub-25,65,high_activation,incongruent,correct,431
sub-25,66,high_activation,incongruent,correct,379
sub-25,67,high_activation,congruent,correct,338
sub-25,68,high_activation,incongruent,correct,344
sub-25,69,high_activation,incongruent,correct,324
sub-25,70,high_activation,incongruent,correct,372
sub-25,71,high_activation,congruent,correct,288
sub-25,72,high_activation,incongruent,correct,341
sub-25,73,high_activation,incongruent,correct,394
sub-25,74,high_activation,incongruent,correct,318
sub-25,75,high_activation,incongruent,correct,411
sub-25,76,high_activation,congruent,correct,394
sub-25,77,high_activation,incongruent,correct,352
sub-25,78,high_activation,incongruent,correct,403
sub-25,79,high_activation,congruent,correct,408
sub-25,80,high_activation,incongruent,correct,415
sub-25,81,high_activation,incongruent,correct,298
sub-25,82,high_activation,incongruent,correct,337
sub-25,83,high_activation,congruent,correct,406
sub-25,84,high_activation,congruent,correct,468
sub-25,85,high_activation,congruent,correct,350
sub-25,86,high_activation,incongruent,correct,352
sub-25,87,high_activation,congruent,correct,338
sub-25,88,high_activation,incongruent,correct,304
sub-25,89,high_activation,incongruent,correct,366
sub-25,90,high_activation,incongruent,correct,319
sub-25,91,high_activation,congruent,correct,251
sub-25,92,high_activation,congruent,correct,399
sub-25,93,high_activation,congruent,correct,307
sub-25,94,high_activation,congruent,correct,348
sub-25,95,high_activation,incongruent,correct,461
sub-25,96,high_activation,congruent,correct,402
sub-25,97,high_activation,congruent,correct,389
sub-25,98,high_activation,congruent,correct,356
sub-25,99,high_activation,congruent,correct,395
sub-25,100,high_activation,incongruent,correct,440
sub-25,101,high_activation,congruent,correct,343
sub-25,102,high_activation,incongruent,correct,502
sub-25,103,high_activation,incongruent,correct,284
sub-25,104,high_activation,congruent,correct,335
sub-25,105,high_activation,incongruent,correct,305
sub-25,106,high_activation,congruent,correct,383
sub-25,107,high_activation,congruent,correct,405
sub-25,108,high_activation,incongruent,correct,358
sub-25,109,high_activation,congruent,correct,307
sub-25,110,high_activation,incongruent,incorrect,325
sub-25,111,high_activation,congruent,correct,357
sub-25,112,high_activation,incongruent,correct,424
sub-25,113,high_activation,congruent,correct,288
sub-25,114,high_activation,incongruent,correct,472
sub-25,115,high_activation,incongruent,correct,393
sub-25,116,high_activation,congruent,correct,328
sub-25,117,high_activation,congruent,correct,335
sub-25,118,high_activation,incongruent,correct,470
sub-25,119,high_activation,incongruent,correct,393
sub-25,120,high_activation,congruent,correct,295
sub-25,121,high_activation,incongruent,correct,351
sub-25,122,high_activation,congruent,correct,292
sub-25,123,high_activation,incongruent,correct,398
sub-25,124,high_activation,congruent,correct,276
sub-25,125,high_activation,congruent,correct,336
sub-25,126,high_activation,congruent,incorrect,11
sub-25,127,high_activation,incongruent,correct,486
sub-25,128,high_activation,incongruent,correct,362
sub-25,129,high_activation,congruent,correct,402
sub-25,130,high_activation,incongruent,correct,375
sub-25,131,high_activation,incongruent,correct,420
sub-25,132,high_activation,congruent,correct,280
sub-25,133,high_activation,congruent,correct,407
sub-25,134,high_activation,congruent,correct,377
sub-25,135,high_activation,incongruent,correct,317
sub-25,136,high_activation,incongruent,correct,378
sub-25,137,high_activation,incongruent,correct,405
sub-25,138,high_activation,incongruent,correct,356
sub-25,139,high_activation,congruent,correct,339
sub-25,140,high_activation,incongruent,correct,340
sub-25,141,high_activation,congruent,correct,315
sub-25,142,high_activation,incongruent,correct,422
sub-25,143,high_activation,incongruent,correct,382
sub-25,144,high_activation,congruent,incorrect,400
sub-25,145,high_activation,incongruent,correct,352
sub-25,146,high_activation,congruent,incorrect,415
sub-25,147,high_activation,incongruent,correct,458
sub-25,148,high_activation,incongruent,correct,493
sub-25,149,high_activation,incongruent,correct,329
sub-25,150,high_activation,incongruent,correct,434
sub-25,151,high_activation,incongruent,correct,432
sub-25,152,high_activation,congruent,correct,330
sub-25,153,high_activation,incongruent,correct,395
sub-25,154,high_activation,congruent,correct,419
sub-25,155,high_activation,incongruent,correct,440
sub-25,156,high_activation,incongruent,correct,592
sub-25,157,high_activation,congruent,correct,388
sub-25,158,high_activation,incongruent,correct,416
sub-25,159,high_activation,congruent,correct,389
sub-25,160,high_activation,congruent,correct,434
sub-25,161,high_activation,congruent,correct,323
sub-25,162,high_activation,incongruent,correct,431
sub-25,163,high_activation,incongruent,correct,444
sub-25,164,high_activation,incongruent,correct,358
sub-25,165,high_activation,incongruent,correct,456
sub-25,166,high_activation,incongruent,correct,440
sub-25,167,high_activation,incongruent,correct,388
sub-25,168,high_activation,congruent,correct,380
sub-25,169,high_activation,congruent,correct,330
sub-25,170,high_activation,congruent,correct,376
sub-25,171,high_activation,incongruent,correct,302
sub-25,172,high_activation,congruent,correct,425
sub-25,173,high_activation,incongruent,correct,380
sub-25,174,high_activation,incongruent,correct,325
sub-25,175,high_activation,incongruent,correct,446
sub-25,176,high_activation,incongruent,correct,353
sub-25,177,high_activation,congruent,correct,362
sub-25,178,high_activation,incongruent,correct,459
sub-25,179,high_activation,congruent,correct,335
sub-25,180,high_activation,congruent,correct,396
sub-25,181,high_activation,incongruent,correct,368
sub-25,182,high_activation,incongruent,correct,336
sub-25,183,high_activation,incongruent,correct,425
sub-25,184,high_activation,congruent,correct,317
sub-25,185,high_activation,congruent,correct,324
sub-25,186,high_activation,congruent,correct,376
sub-25,187,high_activation,incongruent,correct,376
sub-25,188,high_activation,congruent,correct,341
sub-25,189,high_activation,incongruent,correct,417
sub-25,190,high_activation,incongruent,correct,436
sub-25,191,high_activation,congruent,correct,416
sub-25,192,high_activation,incongruent,correct,435
sub-25,193,high_activation,congruent,correct,364
sub-25,194,high_activation,congruent,correct,328
sub-25,195,high_activation,congruent,correct,390
sub-25,196,high_activation,congruent,correct,435
sub-25,197,high_activation,incongruent,correct,509
sub-25,198,high_activation,incongruent,correct,375
sub-25,199,high_activation,incongruent,correct,472
sub-25,200,high_activation,incongruent,correct,477
sub-25,201,high_activation,incongruent,correct,436
sub-25,202,high_activation,congruent,correct,488
sub-25,203,high_activation,congruent,correct,402
sub-25,204,high_activation,incongruent,correct,400
sub-25,205,high_activation,congruent,correct,432
sub-25,206,high_activation,incongruent,correct,432
sub-25,207,high_activation,congruent,correct,384
sub-25,208,high_activation,congruent,correct,360
sub-25,209,high_activation,congruent,correct,339
sub-25,210,high_activation,incongruent,correct,348
sub-25,211,high_activation,congruent,correct,337
sub-25,212,high_activation,congruent,correct,487
sub-25,213,high_activation,incongruent,correct,338
sub-25,214,high_activation,incongruent,correct,432
sub-25,215,high_activation,incongruent,,
sub-25,216,high_activation,incongruent,correct,518
sub-25,217,high_activation,incongruent,correct,406
sub-25,218,high_activation,incongruent,correct,397
sub-25,219,high_activation,incongruent,correct,368
sub-25,220,high_activation,congruent,correct,452
sub-25,221,high_activation,incongruent,correct,388
sub-25,222,high_activation,incongruent,correct,342
sub-25,223,high_activation,congruent,correct,354
sub-25,224,high_activation,incongruent,correct,554
sub-25,225,high_activation,congruent,correct,667
sub-25,226,high_activation,congruent,correct,508
sub-25,227,high_activation,congruent,correct,340
sub-25,228,high_activation,congruent,correct,386
sub-25,229,high_activation,congruent,correct,376
sub-25,230,high_activation,incongruent,correct,422
sub-25,231,high_activation,incongruent,correct,377
sub-25,232,high_activation,incongruent,correct,482
sub-25,233,high_activation,congruent,correct,348
sub-25,234,high_activation,congruent,correct,390
sub-25,235,high_activation,congruent,correct,379
sub-25,236,high_activation,congruent,correct,256
sub-25,237,high_activation,incongruent,correct,379
sub-25,238,high_activation,incongruent,correct,479
sub-25,239,high_activation,congruent,correct,518
sub-25,240,high_activation,congruent,correct,396
sub-25,241,high_activation,incongruent,incorrect,331
sub-25,242,high_activation,incongruent,correct,446
sub-25,243,high_activation,incongruent,correct,340
sub-25,244,high_activation,congruent,correct,373
sub-25,245,high_activation,congruent,correct,398
sub-25,246,high_activation,incongruent,correct,406
sub-25,247,high_activation,incongruent,correct,448
sub-25,248,high_activation,congruent,correct,533
sub-25,249,high_activation,incongruent,correct,406
sub-25,250,high_activation,congruent,correct,554
sub-25,251,high_activation,incongruent,correct,396
sub-25,252,high_activation,incongruent,correct,458
sub-25,253,high_activation,incongruent,correct,558
sub-25,254,high_activation,incongruent,correct,524
sub-25,255,high_activation,congruent,correct,335
sub-25,256,high_activation,congruent,correct,332
sub-25,257,high_activation,incongruent,correct,434
sub-25,258,high_activation,congruent,correct,410
sub-25,259,high_activation,congruent,correct,415
sub-25,260,high_activation,congruent,correct,282
sub-25,261,high_activation,incongruent,incorrect,393
sub-25,262,high_activation,congruent,correct,307
sub-25,263,high_activation,incongruent,correct,449
sub-25,264,high_activation,incongruent,correct,483
sub-25,265,high_activation,congruent,correct,370
sub-25,266,high_activation,incongruent,correct,542
sub-25,267,high_activation,incongruent,correct,479
sub-25,268,high_activation,incongruent,correct,463
sub-25,269,high_activation,incongruent,correct,372
sub-25,270,high_activation,incongruent,correct,347
sub-25,271,high_activation,incongruent,correct,484
sub-25,272,high_activation,congruent,correct,403
sub-25,273,high_activation,congruent,correct,434
sub-25,274,high_activation,congruent,correct,310
sub-25,275,high_activation,incongruent,correct,400
sub-25,276,high_activation,congruent,correct,459
sub-25,277,high_activation,congruent,correct,395
sub-25,278,high_activation,incongruent,correct,440
sub-25,279,high_activation,congruent,correct,478
sub-25,280,high_activation,congruent,correct,432
sub-25,281,high_activation,incongruent,correct,455
sub-25,282,high_activation,incongruent,correct,427
sub-25,283,high_activation,incongruent,correct,410
sub-25,284,high_activation,incongruent,correct,524
sub-25,285,high_activation,incongruent,correct,460
sub-25,286,high_activation,congruent,correct,413
sub-25,287,high_activation,congruent,correct,410
sub-25,288,high_activation,congruent,correct,405
sub-25,289,high_activation,incongruent,correct,394
sub-25,290,high_activation,congruent,correct,390
sub-25,291,high_activation,congruent,correct,470
sub-25,292,high_activation,congruent,correct,433
sub-25,293,high_activation,congruent,correct,455
sub-25,294,high_activation,incongruent,correct,494
sub-25,295,high_activation,incongruent,correct,1169
sub-25,296,high_activation,incongruent,correct,408
sub-25,297,high_activation,congruent,correct,369
sub-25,298,high_activation,congruent,correct,362
sub-25,299,high_activation,congruent,correct,240
sub-25,300,high_activation,incongruent,correct,359
sub-25,301,high_activation,congruent,incorrect,326
sub-25,302,high_activation,incongruent,correct,398
sub-25,303,high_activation,congruent,correct,380
sub-25,304,high_activation,incongruent,correct,462
sub-25,305,high_activation,incongruent,correct,377
sub-25,306,high_activation,incongruent,correct,346
sub-25,307,high_activation,incongruent,correct,327
sub-25,308,high_activation,incongruent,correct,312
sub-25,309,high_activation,incongruent,correct,334
sub-25,310,high_activation,incongruent,correct,389
sub-25,311,high_activation,congruent,correct,350
sub-25,312,high_activation,incongruent,correct,278
sub-25,313,high_activation,incongruent,correct,409
sub-25,314,high_activation,incongruent,correct,274
sub-25,315,high_activation,congruent,correct,475
sub-25,316,high_activation,incongruent,correct,323
sub-25,317,high_activation,congruent,correct,335
sub-25,318,high_activation,incongruent,correct,334
sub-25,319,high_activation,congruent,correct,376
sub-25,320,high_activation,incongruent,correct,408
sub-25,321,high_activation,incongruent,correct,414
sub-25,322,high_activation,congruent,correct,336
sub-25,323,high_activation,incongruent,correct,436
sub-25,324,high_activation,incongruent,correct,216
sub-25,325,high_activation,incongruent,correct,437
sub-25,326,high_activation,incongruent,correct,469
sub-25,327,high_activation,congruent,correct,460
sub-25,328,high_activation,congruent,correct,286
sub-25,329,high_activation,incongruent,correct,438
sub-25,330,high_activation,incongruent,correct,364
sub-25,331,high_activation,incongruent,correct,356
sub-25,332,high_activation,incongruent,correct,348
sub-25,333,high_activation,congruent,correct,389
sub-25,334,high_activation,congruent,correct,329
sub-25,335,high_activation,congruent,correct,236
sub-25,336,high_activation,incongruent,correct,351
sub-25,337,high_activation,congruent,correct,406
sub-25,338,high_activation,incongruent,incorrect,382
sub-25,339,high_activation,incongruent,correct,367
sub-25,340,high_activation,congruent,correct,375
sub-25,341,high_activation,congruent,correct,456
sub-25,342,high_activation,congruent,correct,460
sub-25,343,high_activation,incongruent,correct,449
sub-25,344,high_activation,congruent,correct,748
sub-25,345,high_activation,congruent,correct,356
sub-25,346,high_activation,congruent,correct,451
sub-25,347,high_activation,congruent,correct,392
sub-25,348,high_activation,congruent,correct,312
sub-25,349,high_activation,congruent,correct,299
sub-25,350,high_activation,congruent,correct,377
sub-25,351,high_activation,incongruent,correct,412
sub-25,352,high_activation,congruent,correct,399
sub-25,353,high_activation,incongruent,correct,399
sub-25,354,high_activation,incongruent,correct,384
sub-25,355,high_activation,congruent,correct,415
sub-25,356,high_activation,congruent,correct,415
sub-25,357,high_activation,incongruent,correct,398
sub-25,358,high_activation,incongruent,correct,354
sub-25,359,high_activation,incongruent,correct,386
sub-25,360,high_activation,congruent,correct,427
sub-25,361,high_activation,congruent,correct,325
sub-25,362,high_activation,congruent,correct,450
sub-25,363,high_activation,incongruent,correct,346
sub-25,364,high_activation,congruent,correct,375
sub-25,365,high_activation,incongruent,correct,416
sub-25,366,high_activation,congruent,correct,334
sub-25,367,high_activation,congruent,correct,371
sub-25,368,high_activation,incongruent,correct,512
sub-25,369,high_activation,incongruent,correct,346
sub-25,370,high_activation,incongruent,correct,396
sub-25,371,high_activation,congruent,correct,470
sub-25,372,high_activation,incongruent,correct,516
sub-25,373,high_activation,congruent,correct,529
sub-25,374,high_activation,incongruent,correct,495
sub-25,375,high_activation,incongruent,correct,414
sub-25,376,high_activation,incongruent,correct,332
sub-25,377,high_activation,incongruent,correct,398
sub-25,378,high_activation,congruent,correct,440
sub-25,379,high_activation,congruent,correct,405
sub-25,380,high_activation,incongruent,correct,402
sub-25,381,high_activation,incongruent,correct,389
sub-25,382,high_activation,incongruent,correct,396
sub-25,383,high_activation,congruent,correct,371
sub-25,384,high_activation,congruent,correct,389
sub-25,385,high_activation,congruent,correct,426
sub-25,386,high_activation,congruent,correct,534
sub-25,387,high_activation,congruent,correct,500
sub-25,388,high_activation,incongruent,correct,424
sub-25,389,high_activation,incongruent,correct,431
sub-25,390,high_activation,congruent,incorrect,449
sub-25,391,high_activation,congruent,correct,258
sub-25,392,high_activation,incongruent,correct,366
sub-25,393,high_activation,incongruent,correct,335
sub-25,394,high_activation,congruent,correct,445
sub-25,395,high_activation,congruent,correct,416
sub-25,396,high_activation,incongruent,correct,413
sub-25,397,high_activation,congruent,correct,411
sub-25,398,high_activation,congruent,incorrect,439
sub-25,399,high_activation,congruent,correct,395
sub-25,400,high_activation,congruent,correct,370
sub-25,401,high_activation,incongruent,correct,335
sub-25,402,high_activation,incongruent,correct,406
sub-25,403,high_activation,incongruent,correct,448
sub-25,404,high_activation,congruent,correct,425
sub-25,405,high_activation,incongruent,correct,424
sub-25,406,high_activation,congruent,correct,406
sub-25,407,high_activation,congruent,correct,314
sub-25,408,high_activation,congruent,correct,409
sub-25,409,high_activation,incongruent,correct,428
sub-25,410,high_activation,incongruent,correct,496
sub-25,411,high_activation,incongruent,correct,332
sub-25,412,high_activation,incongruent,correct,344
sub-25,413,high_activation,incongruent,correct,443
sub-25,414,high_activation,incongruent,correct,360
sub-25,415,high_activation,congruent,correct,442
sub-25,416,high_activation,congruent,correct,284
sub-25,417,high_activation,incongruent,correct,379
sub-25,418,high_activation,incongruent,correct,339
sub-25,419,high_activation,congruent,correct,330
sub-25,420,high_activation,incongruent,correct,316
sub-25,421,high_activation,congruent,correct,335
sub-25,422,high_activation,incongruent,correct,362
sub-25,423,high_activation,incongruent,incorrect,366
sub-25,424,high_activation,congruent,correct,290
sub-25,425,high_activation,congruent,correct,449
sub-25,426,high_activation,congruent,correct,396
sub-25,427,high_activation,congruent,correct,395
sub-25,428,high_activation,congruent,correct,378
sub-25,429,high_activation,congruent,correct,369
sub-25,430,high_activation,congruent,correct,364
sub-25,431,high_activation,incongruent,correct,402
sub-25,432,high_activation,incongruent,correct,487
sub-25,433,high_activation,congruent,correct,345
sub-25,434,high_activation,congruent,correct,299
sub-25,435,high_activation,congruent,correct,267
sub-25,436,high_activation,incongruent,incorrect,446
sub-25,437,high_activation,congruent,correct,351
sub-25,438,high_activation,congruent,correct,340
sub-25,439,high_activation,congruent,correct,340
sub-25,440,high_activation,incongruent,correct,412
sub-25,441,high_activation,incongruent,correct,638
sub-25,442,high_activation,incongruent,correct,562
sub-25,443,high_activation,congruent,correct,587
sub-25,444,high_activation,congruent,correct,572
sub-25,445,high_activation,congruent,correct,516
sub-25,446,high_activation,congruent,correct,340
sub-25,447,high_activation,incongruent,correct,500
sub-25,448,high_activation,congruent,correct,520
sub-25,449,high_activation,congruent,correct,524
sub-25,450,high_activation,incongruent,correct,440
sub-25,451,high_activation,incongruent,correct,484
sub-25,452,high_activation,congruent,correct,362
sub-25,453,high_activation,incongruent,correct,416
sub-25,454,high_activation,congruent,correct,400
sub-25,455,high_activation,incongruent,correct,472
sub-25,456,high_activation,congruent,correct,428
sub-25,457,high_activation,congruent,correct,377
sub-25,458,high_activation,congruent,correct,416
sub-25,459,high_activation,incongruent,correct,408
sub-25,460,high_activation,incongruent,correct,326
sub-25,461,high_activation,congruent,correct,322
sub-25,462,high_activation,incongruent,correct,468
sub-25,463,high_activation,congruent,correct,396
sub-25,464,high_activation,incongruent,correct,493
sub-25,465,high_activation,incongruent,correct,478
sub-25,466,high_activation,incongruent,correct,440
sub-25,467,high_activation,incongruent,correct,352
sub-25,468,high_activation,incongruent,correct,422
sub-25,469,high_activation,incongruent,correct,420
sub-25,470,high_activation,congruent,correct,566
sub-25,471,high_activation,congruent,correct,368
sub-25,472,high_activation,congruent,correct,430
sub-25,473,high_activation,incongruent,correct,309
sub-25,474,high_activation,incongruent,correct,390
sub-25,475,high_activation,congruent,correct,379
sub-25,476,high_activation,incongruent,correct,471
sub-25,477,high_activation,incongruent,correct,387
sub-25,478,high_activation,incongruent,correct,552
sub-25,479,high_activation,congruent,correct,351
sub-25,480,high_activation,congruent,correct,392
sub-25,481,high_activation,incongruent,correct,446
sub-25,482,high_activation,incongruent,correct,396
sub-25,483,high_activation,congruent,correct,382
sub-25,484,high_activation,congruent,correct,440
sub-25,485,high_activation,incongruent,correct,466
sub-25,486,high_activation,incongruent,correct,455
sub-25,487,high_activation,congruent,correct,424
sub-25,488,high_activation,incongruent,correct,348
sub-25,489,high_activation,congruent,correct,396
sub-25,490,high_activation,incongruent,correct,355
sub-25,491,high_activation,incongruent,correct,412
sub-25,492,high_activation,incongruent,correct,368
sub-25,493,high_activation,congruent,correct,428
sub-25,494,high_activation,congruent,correct,401
sub-25,495,high_activation,incongruent,incorrect,308
sub-25,496,high_activation,incongruent,correct,415
sub-25,497,high_activation,congruent,correct,438
sub-25,498,high_activation,incongruent,correct,428
sub-25,499,high_activation,congruent,correct,471
sub-25,500,high_activation,congruent,correct,366
sub-25,501,high_activation,congruent,correct,470
sub-25,502,high_activation,congruent,correct,516
sub-25,503,high_activation,incongruent,correct,395
sub-25,504,high_activation,congruent,correct,393
sub-25,505,high_activation,congruent,correct,361
sub-25,506,high_activation,congruent,correct,301
sub-25,507,high_activation,incongruent,correct,483
sub-25,508,high_activation,incongruent,correct,290
sub-25,509,high_activation,congruent,correct,351
sub-25,510,high_activation,incongruent,correct,428
sub-25,511,high_activation,incongruent,correct,408
sub-25,512,high_activation,incongruent,correct,452
sub-25,513,high_activation,congruent,correct,436
sub-25,514,high_activation,congruent,correct,688
sub-25,515,high_activation,incongruent,correct,403
sub-25,516,high_activation,congruent,correct,304
sub-25,517,high_activation,congruent,correct,295
sub-25,518,high_activation,incongruent,correct,340
sub-25,519,high_activation,incongruent,correct,503
sub-25,520,high_activation,incongruent,correct,383
sub-25,521,high_activation,incongruent,correct,458
sub-25,522,high_activation,incongruent,correct,326
sub-25,523,high_activation,incongruent,correct,424
sub-25,524,high_activation,congruent,correct,462
sub-25,525,high_activation,congruent,correct,418
sub-25,526,high_activation,incongruent,correct,368
sub-25,527,high_activation,incongruent,correct,388
sub-25,528,high_activation,congruent,correct,402
sub-25,529,high_activation,incongruent,correct,374
sub-25,530,high_activation,incongruent,correct,339
sub-25,531,high_activation,incongruent,correct,354
sub-25,532,high_activation,congruent,correct,360
sub-25,533,high_activation,incongruent,correct,572
sub-25,534,high_activation,congruent,correct,452
sub-25,535,high_activation,incongruent,incorrect,278
sub-25,536,high_activation,congruent,correct,234
sub-25,537,high_activation,congruent,correct,303
sub-25,538,high_activation,congruent,correct,382
sub-25,539,high_activation,congruent,correct,330
sub-25,540,high_activation,congruent,correct,462
sub-25,541,high_activation,congruent,correct,407
sub-25,542,high_activation,congruent,correct,510
sub-25,543,high_activation,congruent,correct,383
sub-25,544,high_activation,congruent,correct,458
sub-25,545,high_activation,incongruent,correct,488
sub-25,546,high_activation,congruent,correct,488
sub-25,547,high_activation,congruent,correct,370
sub-25,548,high_activation,incongruent,correct,419
sub-25,549,high_activation,incongruent,correct,564
sub-25,550,high_activation,congruent,correct,504
sub-25,551,high_activation,congruent,correct,378
sub-25,552,high_activation,congruent,correct,445
sub-25,553,high_activation,congruent,correct,405
sub-25,554,high_activation,incongruent,correct,491
sub-25,555,high_activation,incongruent,correct,411
sub-25,556,high_activation,incongruent,correct,389
sub-25,557,high_activation,incongruent,correct,520
sub-25,558,high_activation,congruent,correct,412
sub-25,559,high_activation,congruent,correct,498
sub-25,560,high_activation,congruent,correct,517
sub-25,561,high_activation,congruent,correct,548
sub-25,562,high_activation,incongruent,correct,446
sub-25,563,high_activation,incongruent,correct,285
sub-25,564,high_activation,congruent,correct,330
sub-25,565,high_activation,congruent,correct,294
sub-25,566,high_activation,incongruent,correct,392
sub-25,567,high_activation,incongruent,correct,468
sub-25,568,high_activation,congruent,correct,497
sub-25,569,high_activation,incongruent,correct,375
sub-25,570,high_activation,congruent,correct,356
sub-25,571,high_activation,congruent,correct,447
sub-25,572,high_activation,congruent,incorrect,359
sub-25,573,high_activation,congruent,incorrect,362
sub-25,574,high_activation,incongruent,correct,551
sub-25,575,high_activation,congruent,correct,402
sub-25,576,high_activation,incongruent,correct,375
sub-25,577,high_activation,congruent,correct,390
sub-25,578,high_activation,congruent,correct,364
sub-25,579,high_activation,congruent,correct,401
sub-25,580,high_activation,congruent,correct,356
sub-25,581,high_activation,incongruent,,
sub-25,582,high_activation,congruent,correct,335
sub-25,583,high_activation,congruent,correct,360
sub-25,584,high_activation,incongruent,correct,368
sub-25,585,high_activation,congruent,correct,303
sub-25,586,high_activation,incongruent,correct,342
sub-25,587,high_activation,congruent,correct,284
sub-25,588,high_activation,congruent,correct,384
sub-25,589,high_activation,congruent,correct,353
sub-25,590,high_activation,incongruent,correct,367
sub-25,591,high_activation,congruent,correct,444
sub-25,592,high_activation,congruent,correct,444
sub-25,593,high_activation,incongruent,correct,262
sub-25,594,high_activation,congruent,correct,397
sub-25,595,high_activation,incongruent,correct,343
sub-25,596,high_activation,incongruent,correct,373
sub-25,597,high_activation,congruent,correct,394
sub-25,598,high_activation,incongruent,correct,437
sub-25,599,high_activation,incongruent,correct,497
sub-25,600,high_activation,congruent,correct,330
sub-25,601,high_activation,incongruent,correct,399
sub-25,602,high_activation,incongruent,correct,476
sub-25,603,high_activation,incongruent,correct,530
sub-25,604,high_activation,congruent,correct,488
sub-25,605,high_activation,congruent,incorrect,426
sub-25,606,high_activation,congruent,correct,393
sub-25,607,high_activation,congruent,correct,342
sub-25,608,high_activation,congruent,correct,379
sub-25,609,high_activation,congruent,correct,346
sub-25,610,high_activation,congruent,correct,412
sub-25,611,high_activation,congruent,correct,455
sub-25,612,high_activation,congruent,correct,349
sub-25,613,high_activation,incongruent,correct,406
sub-25,614,high_activation,incongruent,correct,351
sub-25,615,high_activation,congruent,correct,359
sub-25,616,high_activation,congruent,correct,431
sub-25,617,high_activation,incongruent,correct,406
sub-25,618,high_activation,congruent,correct,436
sub-25,619,high_activation,incongruent,incorrect,318
sub-25,620,high_activation,congruent,correct,379
sub-25,621,high_activation,congruent,correct,400
sub-25,622,high_activation,congruent,correct,790
sub-25,623,high_activation,congruent,correct,443
sub-25,624,high_activation,congruent,correct,453
sub-25,625,high_activation,incongruent,correct,272
sub-25,626,high_activation,incongruent,correct,450
sub-25,627,high_activation,congruent,correct,320
sub-25,628,high_activation,congruent,correct,252
sub-25,629,high_activation,congruent,correct,388
sub-25,630,high_activation,incongruent,correct,332
sub-25,631,high_activation,congruent,correct,502
sub-25,632,high_activation,congruent,correct,580
sub-25,633,high_activation,congruent,correct,421
sub-25,634,high_activation,congruent,correct,359
sub-25,635,high_activation,incongruent,correct,465
sub-25,636,high_activation,incongruent,correct,380
sub-25,637,high_activation,congruent,correct,360
sub-25,638,high_activation,incongruent,correct,378
sub-25,639,high_activation,congruent,incorrect,396
sub-25,640,high_activation,incongruent,correct,481
sub-25,641,high_activation,congruent,correct,284
sub-25,642,high_activation,congruent,correct,350
sub-25,643,high_activation,congruent,correct,307
sub-25,644,high_activation,congruent,correct,340
sub-25,645,high_activation,incongruent,correct,470
sub-25,646,high_activation,congruent,correct,428
sub-25,647,high_activation,congruent,correct,460
sub-25,648,high_activation,congruent,correct,352
sub-25,649,high_activation,incongruent,correct,417
sub-25,650,high_activation,incongruent,correct,300
sub-25,651,high_activation,congruent,correct,358
sub-25,652,high_activation,incongruent,incorrect,350
sub-25,653,high_activation,congruent,correct,467
sub-25,654,high_activation,congruent,correct,357
sub-25,655,high_activation,incongruent,correct,420
sub-25,656,high_activation,congruent,correct,374
sub-25,657,high_activation,congruent,correct,338
sub-25,658,high_activation,congruent,correct,307
sub-25,659,high_activation,congruent,correct,347
sub-25,660,high_activation,congruent,correct,316
sub-25,661,high_activation,incongruent,correct,312
sub-25,662,high_activation,incongruent,incorrect,302
sub-25,663,high_activation,incongruent,correct,383
sub-25,664,high_activation,congruent,incorrect,536
sub-25,665,high_activation,congruent,correct,312
sub-25,666,high_activation,congruent,correct,396
sub-25,667,high_activation,incongruent,correct,370
sub-25,668,high_activation,congruent,correct,260
sub-25,669,high_activation,incongruent,correct,362
sub-25,670,high_activation,congruent,correct,345
sub-25,671,high_activation,congruent,correct,346
sub-25,672,high_activation,incongruent,correct,439
sub-25,673,high_activation,congruent,correct,338
sub-25,674,high_activation,incongruent,correct,312
sub-25,675,high_activation,congruent,correct,240
sub-25,676,high_activation,congruent,correct,428
sub-25,677,high_activation,congruent,correct,330
sub-25,678,high_activation,congruent,correct,348
sub-25,679,high_activation,incongruent,correct,403
sub-25,680,high_activation,congruent,correct,437
sub-25,681,high_activation,incongruent,correct,354
sub-25,682,high_activation,congruent,correct,398
sub-25,683,high_activation,congruent,correct,381
sub-25,684,high_activation,congruent,correct,342
sub-25,685,high_activation,congruent,correct,323
sub-25,686,high_activation,incongruent,correct,335
sub-25,687,high_activation,incongruent,,
sub-25,688,high_activation,congruent,correct,454
sub-25,689,high_activation,incongruent,correct,449
sub-25,690,high_activation,congruent,correct,287
sub-25,691,high_activation,incongruent,correct,429
sub-25,692,high_activation,congruent,correct,469
sub-25,693,high_activation,congruent,incorrect,291
sub-25,694,high_activation,incongruent,incorrect,418
sub-25,695,high_activation,incongruent,correct,413
sub-25,696,high_activation,congruent,correct,403
sub-25,697,high_activation,incongruent,correct,414
sub-25,698,high_activation,incongruent,correct,355
sub-25,699,high_activation,congruent,correct,317
sub-25,700,high_activation,incongruent,correct,404
sub-25,701,high_activation,congruent,correct,451
sub-25,702,high_activation,incongruent,correct,350
sub-25,703,high_activation,congruent,correct,264
sub-25,704,high_activation,incongruent,correct,431
sub-25,705,high_activation,congruent,correct,394
sub-25,706,high_activation,congruent,correct,416
sub-25,707,high_activation,incongruent,correct,292
sub-25,708,high_activation,congruent,correct,380
sub-25,709,high_activation,incongruent,correct,387
sub-25,710,high_activation,incongruent,correct,318
sub-25,711,high_activation,incongruent,correct,287
sub-25,712,high_activation,incongruent,correct,364
sub-25,713,high_activation,incongruent,correct,398
sub-25,714,high_activation,incongruent,correct,414
sub-25,715,high_activation,congruent,correct,566
sub-25,716,high_activation,incongruent,correct,444
sub-25,717,high_activation,incongruent,correct,407
sub-25,718,high_activation,incongruent,correct,444
sub-25,719,high_activation,incongruent,correct,355
sub-25,720,high_activation,incongruent,correct,444
sub-25,721,high_activation,incongruent,correct,373
sub-25,722,high_activation,incongruent,correct,436
sub-25,723,high_activation,congruent,correct,374
sub-25,724,high_activation,congruent,correct,409
sub-25,725,high_activation,incongruent,correct,411
sub-25,726,high_activation,incongruent,correct,289
sub-25,727,high_activation,congruent,correct,417
sub-25,728,high_activation,incongruent,incorrect,334
sub-25,729,high_activation,congruent,correct,449
sub-25,730,high_activation,congruent,correct,298
sub-25,731,high_activation,incongruent,correct,393
sub-25,732,high_activation,incongruent,correct,417
sub-25,733,high_activation,congruent,correct,503
sub-25,734,high_activation,congruent,correct,391
sub-25,735,high_activation,congruent,correct,364
sub-25,736,high_activation,congruent,correct,440
sub-25,737,high_activation,incongruent,correct,472
sub-25,738,high_activation,congruent,correct,511
sub-25,739,high_activation,incongruent,correct,445
sub-25,740,high_activation,congruent,correct,355
sub-25,741,high_activation,incongruent,incorrect,403
sub-25,742,high_activation,congruent,correct,246
sub-25,743,high_activation,incongruent,correct,356
sub-25,744,high_activation,congruent,correct,582
sub-25,745,high_activation,congruent,correct,424
sub-25,746,high_activation,incongruent,correct,456
sub-25,747,high_activation,incongruent,correct,374
sub-25,748,high_activation,incongruent,correct,323
sub-25,749,high_activation,congruent,correct,402
sub-25,750,high_activation,incongruent,correct,307
sub-25,751,high_activation,congruent,correct,370
sub-25,752,high_activation,incongruent,correct,370
sub-25,753,high_activation,incongruent,correct,364
sub-25,754,high_activation,congruent,correct,421
sub-25,755,high_activation,incongruent,correct,404
sub-25,756,high_activation,congruent,correct,462
sub-25,757,high_activation,incongruent,correct,426
sub-25,758,high_activation,congruent,correct,324
sub-25,759,high_activation,incongruent,correct,398
sub-25,760,high_activation,congruent,correct,450
sub-25,761,high_activation,congruent,correct,294
sub-25,762,high_activation,congruent,correct,378
sub-25,763,high_activation,incongruent,correct,418
sub-25,764,high_activation,congruent,correct,483
sub-25,765,high_activation,congruent,correct,422
sub-25,766,high_activation,congruent,correct,363
sub-25,767,high_activation,incongruent,correct,442
sub-25,768,high_activation,congruent,correct,410
sub-25,769,high_activation,incongruent,correct,373
sub-25,770,high_activation,incongruent,correct,325
sub-25,771,high_activation,incongruent,incorrect,202
sub-25,772,high_activation,congruent,correct,334
sub-25,773,high_activation,congruent,correct,366
sub-25,774,high_activation,congruent,correct,232
sub-25,775,high_activation,congruent,correct,334
sub-25,776,high_activation,congruent,correct,336
sub-25,777,high_activation,incongruent,correct,409
sub-25,778,high_activation,congruent,correct,333
sub-25,779,high_activation,incongruent,correct,357
sub-25,780,high_activation,incongruent,correct,408
sub-25,781,high_activation,incongruent,incorrect,325
sub-25,782,high_activation,congruent,correct,374
sub-25,783,high_activation,congruent,correct,383
sub-25,784,high_activation,incongruent,correct,368
sub-25,785,high_activation,incongruent,correct,390
sub-25,786,high_activation,congruent,correct,327
sub-25,787,high_activation,incongruent,correct,399
sub-25,788,high_activation,incongruent,correct,519
sub-25,789,high_activation,congruent,correct,494
sub-25,790,high_activation,congruent,correct,295
sub-25,791,high_activation,congruent,correct,448
sub-25,792,high_activation,incongruent,correct,495
sub-25,793,high_activation,congruent,correct,296
sub-25,794,high_activation,incongruent,correct,364
sub-25,795,high_activation,congruent,correct,374
sub-25,796,high_activation,incongruent,correct,394
sub-25,797,high_activation,incongruent,correct,483
sub-25,798,high_activation,congruent,correct,423
sub-25,799,high_activation,incongruent,correct,447
sub-25,800,high_activation,congruent,correct,320
sub-25,801,high_activation,incongruent,correct,304
sub-25,802,high_activation,incongruent,correct,254
sub-25,803,high_activation,congruent,correct,244
sub-25,804,high_activation,congruent,correct,382
sub-25,805,high_activation,incongruent,correct,340
sub-25,806,high_activation,congruent,correct,236
sub-25,807,high_activation,incongruent,correct,379
sub-25,808,high_activation,congruent,correct,331
sub-25,809,high_activation,incongruent,correct,400
sub-25,810,high_activation,congruent,correct,310
sub-25,811,high_activation,incongruent,correct,410
sub-25,812,high_activation,congruent,correct,401
sub-25,813,high_activation,congruent,correct,398
sub-25,814,high_activation,incongruent,correct,459
sub-25,815,high_activation,incongruent,correct,386
sub-25,816,high_activation,incongruent,correct,318
sub-25,817,high_activation,incongruent,correct,391
sub-25,818,high_activation,incongruent,correct,509
sub-25,819,high_activation,incongruent,correct,368
sub-25,820,high_activation,incongruent,correct,654
sub-25,821,high_activation,congruent,correct,301
sub-25,822,high_activation,congruent,correct,332
sub-25,823,high_activation,incongruent,correct,405
sub-25,824,high_activation,incongruent,correct,360
sub-25,825,high_activation,incongruent,correct,410
sub-25,826,high_activation,congruent,incorrect,334
sub-25,827,high_activation,congruent,correct,324
sub-25,828,high_activation,congruent,correct,324
sub-25,1,low_activation,congruent,correct,501
sub-25,2,low_activation,congruent,correct,374
sub-25,3,low_activation,incongruent,correct,556
sub-25,4,low_activation,incongruent,correct,458
sub-25,5,low_activation,congruent,correct,333
sub-25,6,low_activation,congruent,correct,366
sub-25,7,low_activation,congruent,correct,328
sub-25,8,low_activation,incongruent,incorrect,289
sub-25,9,low_activation,incongruent,correct,557
sub-25,10,low_activation,congruent,correct,431
sub-25,11,low_activation,incongruent,correct,600
sub-25,12,low_activation,congruent,correct,431
sub-25,13,low_activation,congruent,correct,447
sub-25,14,low_activation,incongruent,correct,513
sub-25,15,low_activation,congruent,correct,349
sub-25,16,low_activation,incongruent,correct,430
sub-25,17,low_activation,congruent,correct,397
sub-25,18,low_activation,incongruent,correct,367
sub-25,19,low_activation,congruent,correct,310
sub-25,20,low_activation,congruent,correct,393
sub-25,21,low_activation,incongruent,correct,430
sub-25,22,low_activation,congruent,correct,321
sub-25,23,low_activation,incongruent,correct,609
sub-25,24,low_activation,congruent,correct,345
sub-25,25,low_activation,congruent,correct,404
sub-25,26,low_activation,incongruent,correct,403
sub-25,27,low_activation,incongruent,correct,346
sub-25,28,low_activation,incongruent,correct,404
sub-25,29,low_activation,congruent,correct,399
sub-25,30,low_activation,incongruent,correct,399
sub-25,31,low_activation,congruent,correct,431
sub-25,32,low_activation,incongruent,incorrect,378
sub-25,33,low_activation,congruent,correct,613
sub-25,34,low_activation,congruent,correct,363
sub-25,35,low_activation,congruent,correct,381
sub-25,36,low_activation,congruent,correct,319
sub-25,37,low_activation,incongruent,correct,361
sub-25,38,low_activation,congruent,correct,316
sub-25,39,low_activation,congruent,correct,301
sub-25,40,low_activation,incongruent,correct,361
sub-25,41,low_activation,congruent,correct,328
sub-25,42,low_activation,congruent,correct,374
sub-25,43,low_activation,incongruent,correct,506
sub-25,44,low_activation,incongruent,correct,367
sub-25,45,low_activation,incongruent,correct,361
sub-25,46,low_activation,congruent,correct,345
sub-25,47,low_activation,incongruent,correct,349
sub-25,48,low_activation,congruent,correct,387
sub-25,49,low_activation,incongruent,correct,445
sub-25,50,low_activation,incongruent,correct,381
sub-25,51,low_activation,incongruent,correct,321
sub-25,52,low_activation,incongruent,correct,432
sub-25,53,low_activation,incongruent,correct,336
sub-25,54,low_activation,incongruent,correct,437
sub-25,55,low_activation,incongruent,correct,339
sub-25,56,low_activation,incongruent,correct,390
sub-25,57,low_activation,congruent,correct,345
sub-25,58,low_activation,congruent,correct,369
sub-25,59,low_activation,congruent,correct,329
sub-25,60,low_activation,congruent,correct,316
sub-25,61,low_activation,congruent,correct,381
sub-25,62,low_activation,congruent,correct,343
sub-25,63,low_activation,congruent,correct,306
sub-25,64,low_activation,congruent,correct,341
sub-25,65,low_activation,congruent,correct,379
sub-25,66,low_activation,congruent,correct,555
sub-25,67,low_activation,incongruent,correct,446
sub-25,68,low_activation,congruent,correct,406
sub-25,69,low_activation,incongruent,correct,515
sub-25,70,low_activation,incongruent,correct,511
sub-25,71,low_activation,congruent,correct,282
sub-25,72,low_activation,congruent,correct,297
sub-25,73,low_activation,congruent,correct,285
sub-25,74,low_activation,congruent,correct,258
sub-25,75,low_activation,incongruent,correct,414
sub-25,76,low_activation,incongruent,correct,347
sub-25,77,low_activation,incongruent,correct,326
sub-25,78,low_activation,incongruent,correct,363
sub-25,79,low_activation,congruent,correct,410
sub-25,80,low_activation,incongruent,correct,435
sub-25,81,low_activation,incongruent,correct,402
sub-25,82,low_activation,incongruent,correct,454
sub-25,83,low_activation,congruent,correct,319
sub-25,84,low_activation,congruent,correct,337
sub-25,85,low_activation,congruent,correct,429
sub-25,86,low_activation,congruent,correct,273
sub-25,87,low_activation,congruent,correct,413
sub-25,88,low_activation,incongruent,correct,470
sub-25,89,low_activation,congruent,correct,311
sub-25,90,low_activation,incongruent,correct,377
sub-25,91,low_activation,congruent,correct,262
sub-25,92,low_activation,incongruent,correct,339
sub-25,93,low_activation,congruent,correct,245
sub-25,94,low_activation,incongruent,correct,485
sub-25,95,low_activation,incongruent,correct,381
sub-25,96,low_activation,congruent,correct,321
sub-25,97,low_activation,congruent,correct,297
sub-25,98,low_activation,incongruent,correct,489
sub-25,99,low_activation,congruent,correct,321
sub-25,100,low_activation,congruent,correct,389
sub-25,101,low_activation,congruent,correct,283
sub-25,102,low_activation,congruent,correct,362
sub-25,103,low_activation,congruent,correct,462
sub-25,104,low_activation,incongruent,correct,317
sub-25,105,low_activation,congruent,correct,285
sub-25,106,low_activation,congruent,correct,439
sub-25,107,low_activation,congruent,correct,341
sub-25,108,low_activation,incongruent,correct,389
sub-25,109,low_activation,incongruent,correct,400
sub-25,110,low_activation,congruent,correct,253
sub-25,111,low_activation,incongruent,correct,383
sub-25,112,low_activation,incongruent,correct,362
sub-25,113,low_activation,congruent,correct,270
sub-25,114,low_activation,incongruent,correct,363
sub-25,115,low_activation,incongruent,correct,311
sub-25,116,low_activation,incongruent,correct,365
sub-25,117,low_activation,congruent,correct,229
sub-25,118,low_activation,incongruent,incorrect,315
sub-25,119,low_activation,congruent,correct,344
sub-25,120,low_activation,congruent,correct,365
sub-25,121,low_activation,congruent,correct,335
sub-25,122,low_activation,incongruent,correct,365
sub-25,123,low_activation,congruent,correct,327
sub-25,124,low_activation,incongruent,correct,318
sub-25,125,low_activation,incongruent,correct,315
sub-25,126,low_activation,congruent,correct,411
sub-25,127,low_activation,incongruent,correct,250
sub-25,128,low_activation,incongruent,correct,329
sub-25,129,low_activation,congruent,correct,345
sub-25,130,low_activation,incongruent,correct,269
sub-25,131,low_activation,incongruent,correct,312
sub-25,132,low_activation,congruent,correct,315
sub-25,133,low_activation,congruent,correct,437
sub-25,134,low_activation,congruent,correct,229
sub-25,135,low_activation,congruent,correct,386
sub-25,136,low_activation,congruent,correct,380
sub-25,137,low_activation,congruent,correct,341
sub-25,138,low_activation,incongruent,correct,389
sub-25,139,low_activation,congruent,correct,363
sub-25,140,low_activation,congruent,correct,357
sub-25,141,low_activation,incongruent,correct,419
sub-25,142,low_activation,incongruent,correct,271
sub-25,143,low_activation,congruent,correct,376
sub-25,144,low_activation,congruent,correct,428
sub-25,145,low_activation,congruent,correct,205
sub-25,146,low_activation,incongruent,correct,361
sub-25,147,low_activation,congruent,correct,289
sub-25,148,low_activation,congruent,correct,245
sub-25,149,low_activation,incongruent,correct,254
sub-25,150,low_activation,incongruent,correct,324
sub-25,151,low_activation,congruent,correct,505
sub-25,152,low_activation,incongruent,correct,339
sub-25,153,low_activation,incongruent,correct,367
sub-25,154,low_activation,congruent,correct,342
sub-25,155,low_activation,incongruent,correct,335
sub-25,156,low_activation,incongruent,correct,277
sub-25,157,low_activation,congruent,correct,241
sub-25,158,low_activation,congruent,correct,301
sub-25,159,low_activation,congruent,correct,317
sub-25,160,low_activation,congruent,correct,243
sub-25,161,low_activation,incongruent,,
sub-25,162,low_activation,incongruent,correct,449
sub-25,163,low_activation,congruent,correct,356
sub-25,164,low_activation,congruent,correct,313
sub-25,165,low_activation,incongruent,correct,519
sub-25,166,low_activation,incongruent,correct,417
sub-25,167,low_activation,congruent,correct,367
sub-25,168,low_activation,congruent,correct,405
sub-25,169,low_activation,incongruent,correct,447
sub-25,170,low_activation,incongruent,correct,525
sub-25,171,low_activation,congruent,correct,520
sub-25,172,low_activation,incongruent,correct,415
sub-25,173,low_activation,congruent,correct,449
sub-25,174,low_activation,congruent,correct,397
sub-25,175,low_activation,incongruent,correct,457
sub-25,176,low_activation,congruent,correct,413
sub-25,177,low_activation,congruent,correct,564
sub-25,178,low_activation,incongruent,correct,473
sub-25,179,low_activation,incongruent,correct,341
sub-25,180,low_activation,incongruent,correct,457
sub-25,181,low_activation,incongruent,correct,436
sub-25,182,low_activation,incongruent,correct,469
sub-25,183,low_activation,incongruent,correct,365
sub-25,184,low_activation,congruent,correct,407
sub-25,185,low_activation,incongruent,correct,409
sub-25,186,low_activation,incongruent,correct,348
sub-25,187,low_activation,incongruent,correct,443
sub-25,188,low_activation,congruent,correct,462
sub-25,189,low_activation,congruent,correct,492
sub-25,190,low_activation,incongruent,correct,531
sub-25,191,low_activation,incongruent,correct,383
sub-25,192,low_activation,incongruent,correct,382
sub-25,193,low_activation,incongruent,correct,380
sub-25,194,low_activation,incongruent,correct,423
sub-25,195,low_activation,congruent,correct,421
sub-25,196,low_activation,congruent,correct,351
sub-25,197,low_activation,congruent,correct,240
sub-25,198,low_activation,incongruent,correct,403
sub-25,199,low_activation,incongruent,correct,406
sub-25,200,low_activation,congruent,correct,269
sub-25,201,low_activation,congruent,correct,379
sub-25,202,low_activation,incongruent,correct,397
sub-25,203,low_activation,incongruent,correct,321
sub-25,204,low_activation,congruent,correct,322
sub-25,205,low_activation,congruent,correct,255
sub-25,206,low_activation,congruent,correct,273
sub-25,207,low_activation,congruent,correct,302
sub-25,208,low_activation,congruent,correct,317
sub-25,209,low_activation,incongruent,correct,539
sub-25,210,low_activation,congruent,correct,469
sub-25,211,low_activation,incongruent,correct,515
sub-25,212,low_activation,congruent,incorrect,426
sub-25,213,low_activation,incongruent,correct,581
sub-25,214,low_activation,congruent,correct,449
sub-25,215,low_activation,congruent,correct,383
sub-25,216,low_activation,congruent,correct,407
sub-25,217,low_activation,congruent,correct,230
sub-25,218,low_activation,congruent,correct,510
sub-25,219,low_activation,incongruent,correct,381
sub-25,220,low_activation,congruent,correct,380
sub-25,221,low_activation,incongruent,correct,340
sub-25,222,low_activation,congruent,correct,403
sub-25,223,low_activation,congruent,correct,365
sub-25,224,low_activation,incongruent,correct,470
sub-25,225,low_activation,congruent,correct,507
sub-25,226,low_activation,congruent,correct,495
sub-25,227,low_activation,incongruent,correct,365
sub-25,228,low_activation,congruent,correct,387
sub-25,229,low_activation,incongruent,correct,373
sub-25,230,low_activation,congruent,correct,412
sub-25,231,low_activation,incongruent,correct,473
sub-25,232,low_activation,congruent,correct,415
sub-25,233,low_activation,congruent,correct,297
sub-25,234,low_activation,congruent,correct,527
sub-25,235,low_activation,incongruent,correct,339
sub-25,236,low_activation,congruent,correct,335
sub-25,237,low_activation,congruent,correct,474
sub-25,238,low_activation,congruent,correct,311
sub-25,239,low_activation,incongruent,correct,341
sub-25,240,low_activation,congruent,correct,233
sub-25,241,low_activation,incongruent,correct,341
sub-25,242,low_activation,incongruent,correct,386
sub-25,243,low_activation,congruent,correct,332
sub-25,244,low_activation,congruent,correct,247
sub-25,245,low_activation,incongruent,correct,390
sub-25,246,low_activation,congruent,correct,303
sub-25,247,low_activation,incongruent,correct,333
sub-25,248,low_activation,congruent,correct,320
sub-25,249,low_activation,incongruent,correct,395
sub-25,250,low_activation,incongruent,correct,327
sub-25,251,low_activation,incongruent,correct,523
sub-25,252,low_activation,congruent,correct,363
sub-25,253,low_activation,incongruent,correct,417
sub-25,254,low_activation,congruent,correct,321
sub-25,255,low_activation,congruent,incorrect,365
sub-25,256,low_activation,incongruent,correct,391
sub-25,257,low_activation,congruent,correct,555
sub-25,258,low_activation,congruent,correct,353
sub-25,259,low_activation,incongruent,correct,517
sub-25,260,low_activation,incongruent,correct,359
sub-25,261,low_activation,incongruent,correct,411
sub-25,262,low_activation,incongruent,correct,463
sub-25,263,low_activation,incongruent,correct,445
sub-25,264,low_activation,incongruent,correct,605
sub-25,265,low_activation,congruent,correct,307
sub-25,266,low_activation,incongruent,correct,341
sub-25,267,low_activation,congruent,correct,326
sub-25,268,low_activation,incongruent,correct,337
sub-25,269,low_activation,incongruent,correct,299
sub-25,270,low_activation,incongruent,correct,320
sub-25,271,low_activation,incongruent,correct,335
sub-25,272,low_activation,incongruent,correct,421
sub-25,273,low_activation,incongruent,correct,349
sub-25,274,low_activation,congruent,correct,386
sub-25,275,low_activation,incongruent,correct,422
sub-25,276,low_activation,congruent,correct,237
sub-25,277,low_activation,congruent,correct,311
sub-25,278,low_activation,incongruent,correct,355
sub-25,279,low_activation,incongruent,correct,346
sub-25,280,low_activation,congruent,correct,448
sub-25,281,low_activation,incongruent,correct,445
sub-25,282,low_activation,congruent,correct,553
sub-25,283,low_activation,congruent,correct,263
sub-25,284,low_activation,incongruent,correct,369
sub-25,285,low_activation,incongruent,correct,309
sub-25,286,low_activation,incongruent,correct,351
sub-25,287,low_activation,incongruent,correct,308
sub-25,288,low_activation,congruent,correct,377
sub-25,289,low_activation,incongruent,correct,365
sub-25,290,low_activation,incongruent,correct,455
sub-25,291,low_activation,congruent,correct,345
sub-25,292,low_activation,incongruent,correct,346
sub-25,293,low_activation,congruent,correct,346
sub-25,294,low_activation,congruent,correct,239
sub-25,295,low_activation,incongruent,correct,332
sub-25,296,low_activation,incongruent,correct,367
sub-25,297,low_activation,congruent,correct,338
sub-25,298,low_activation,incongruent,correct,367
sub-25,299,low_activation,congruent,correct,360
sub-25,300,low_activation,congruent,correct,373
sub-25,301,low_activation,congruent,correct,281
sub-25,302,low_activation,congruent,correct,258
sub-25,303,low_activation,congruent,correct,249
sub-25,304,low_activation,congruent,correct,391
sub-25,305,low_activation,congruent,correct,247
sub-25,306,low_activation,congruent,correct,259
sub-25,307,low_activation,incongruent,correct,327
sub-25,308,low_activation,congruent,correct,232
sub-25,309,low_activation,incongruent,correct,377
sub-25,310,low_activation,incongruent,correct,318
sub-25,311,low_activation,congruent,correct,234
sub-25,312,low_activation,congruent,correct,389
sub-25,313,low_activation,incongruent,incorrect,317
sub-25,314,low_activation,congruent,correct,412
sub-25,315,low_activation,incongruent,correct,345
sub-25,316,low_activation,incongruent,correct,509
sub-25,317,low_activation,congruent,correct,357
sub-25,318,low_activation,incongruent,incorrect,305
sub-25,319,low_activation,incongruent,correct,386
sub-25,320,low_activation,incongruent,correct,377
sub-25,321,low_activation,congruent,correct,479
sub-25,322,low_activation,congruent,correct,285
sub-25,323,low_activation,congruent,correct,389
sub-25,324,low_activation,incongruent,incorrect,380
sub-25,325,low_activation,congruent,correct,343
sub-25,326,low_activation,incongruent,correct,473
sub-25,327,low_activation,incongruent,correct,435
sub-25,328,low_activation,incongruent,correct,401
sub-25,329,low_activation,congruent,correct,393
sub-25,330,low_activation,congruent,correct,339
sub-25,331,low_activation,incongruent,correct,405
sub-25,332,low_activation,incongruent,correct,343
sub-25,333,low_activation,incongruent,correct,345
sub-25,334,low_activation,congruent,correct,401
sub-25,335,low_activation,incongruent,correct,451
sub-25,336,low_activation,incongruent,correct,373
sub-25,337,low_activation,congruent,correct,346
sub-25,338,low_activation,incongruent,correct,345
sub-25,339,low_activation,incongruent,correct,399
sub-25,340,low_activation,incongruent,correct,325
sub-25,341,low_activation,congruent,correct,303
sub-25,342,low_activation,congruent,correct,322
sub-25,343,low_activation,incongruent,correct,387
sub-25,344,low_activation,congruent,correct,363
sub-25,345,low_activation,congruent,correct,348
sub-25,346,low_activation,congruent,correct,255
sub-25,347,low_activation,incongruent,correct,367
sub-25,348,low_activation,congruent,correct,375
sub-25,349,low_activation,congruent,correct,305
sub-25,350,low_activation,incongruent,correct,403
sub-25,351,low_activation,incongruent,correct,397
sub-25,352,low_activation,incongruent,correct,293
sub-25,353,low_activation,incongruent,correct,376
sub-25,354,low_activation,incongruent,correct,387
sub-25,355,low_activation,incongruent,correct,447
sub-25,356,low_activation,incongruent,correct,467
sub-25,357,low_activation,incongruent,correct,375
sub-25,358,low_activation,congruent,correct,370
sub-25,359,low_activation,congruent,correct,265
sub-25,360,low_activation,incongruent,correct,397
sub-25,361,low_activation,incongruent,correct,407
sub-25,362,low_activation,incongruent,correct,391
sub-25,363,low_activation,congruent,correct,385
sub-25,364,low_activation,congruent,incorrect,331
sub-25,365,low_activation,incongruent,correct,531
sub-25,366,low_activation,congruent,correct,355
sub-25,367,low_activation,congruent,correct,354
sub-25,368,low_activation,incongruent,correct,467
sub-25,369,low_activation,congruent,correct,454
sub-25,370,low_activation,incongruent,correct,451
sub-25,371,low_activation,congruent,correct,358
sub-25,372,low_activation,congruent,correct,339
sub-25,373,low_activation,congruent,correct,501
sub-25,374,low_activation,congruent,correct,443
sub-25,375,low_activation,incongruent,correct,337
sub-25,376,low_activation,congruent,correct,394
sub-25,377,low_activation,congruent,correct,379
sub-25,378,low_activation,congruent,correct,373
sub-25,379,low_activation,incongruent,correct,525
sub-25,380,low_activation,congruent,correct,426
sub-25,381,low_activation,incongruent,correct,395
sub-25,382,low_activation,congruent,correct,440
sub-25,383,low_activation,incongruent,correct,425
sub-25,384,low_activation,congruent,correct,397
sub-25,385,low_activation,incongruent,correct,377
sub-25,386,low_activation,congruent,correct,447
sub-25,387,low_activation,incongruent,correct,451
sub-25,388,low_activation,incongruent,correct,411
sub-25,389,low_activation,incongruent,correct,394
sub-25,390,low_activation,incongruent,correct,429
sub-25,391,low_activation,incongruent,correct,371
sub-25,392,low_activation,congruent,correct,446
sub-25,393,low_activation,incongruent,correct,497
sub-25,394,low_activation,incongruent,correct,380
sub-25,395,low_activation,incongruent,correct,417
sub-25,396,low_activation,congruent,correct,291
sub-25,397,low_activation,incongruent,correct,448
sub-25,398,low_activation,congruent,correct,262
sub-25,399,low_activation,congruent,correct,245
sub-25,400,low_activation,incongruent,correct,305
sub-25,401,low_activation,incongruent,correct,421
sub-25,402,low_activation,incongruent,correct,375
sub-25,403,low_activation,incongruent,correct,494
sub-25,404,low_activation,incongruent,correct,449
sub-25,405,low_activation,incongruent,correct,411
sub-25,406,low_activation,congruent,correct,380
sub-25,407,low_activation,congruent,correct,332
sub-25,408,low_activation,incongruent,correct,366
sub-25,409,low_activation,incongruent,correct,329
sub-25,410,low_activation,congruent,correct,579
sub-25,411,low_activation,incongruent,correct,307
sub-25,412,low_activation,incongruent,correct,379
sub-25,413,low_activation,congruent,correct,310
sub-25,414,low_activation,congruent,correct,491
sub-25,415,low_activation,congruent,correct,315
sub-25,416,low_activation,incongruent,correct,343
sub-25,417,low_activation,incongruent,correct,369
sub-25,418,low_activation,incongruent,correct,317
sub-25,419,low_activation,congruent,correct,357
sub-25,420,low_activation,congruent,correct,275
sub-25,421,low_activation,congruent,correct,278
sub-25,422,low_activation,incongruent,correct,420
sub-25,423,low_activation,congruent,correct,223
sub-25,424,low_activation,incongruent,correct,362
sub-25,425,low_activation,congruent,correct,303
sub-25,426,low_activation,congruent,correct,341
sub-25,427,low_activation,incongruent,correct,358
sub-25,428,low_activation,congruent,correct,279
sub-25,429,low_activation,incongruent,correct,350
sub-25,430,low_activation,congruent,correct,238
sub-25,431,low_activation,incongruent,correct,317
sub-25,432,low_activation,incongruent,correct,370
sub-25,433,low_activation,congruent,correct,309
sub-25,434,low_activation,incongruent,correct,382
sub-25,435,low_activation,congruent,correct,307
sub-25,436,low_activation,congruent,correct,247
sub-25,437,low_activation,incongruent,correct,359
sub-25,438,low_activation,congruent,correct,325
sub-25,439,low_activation,incongruent,correct,328
sub-25,440,low_activation,congruent,correct,424
sub-25,441,low_activation,congruent,correct,303
sub-25,442,low_activation,congruent,correct,389
sub-25,443,low_activation,incongruent,correct,320
sub-25,444,low_activation,congruent,correct,293
sub-25,445,low_activation,incongruent,correct,395
sub-25,446,low_activation,congruent,correct,347
sub-25,447,low_activation,congruent,correct,301
sub-25,448,low_activation,incongruent,correct,365
sub-25,449,low_activation,congruent,correct,284
sub-25,450,low_activation,congruent,correct,299
sub-25,451,low_activation,congruent,correct,277
sub-25,452,low_activation,incongruent,correct,338
sub-25,453,low_activation,incongruent,correct,315
sub-25,454,low_activation,congruent,correct,384
sub-25,455,low_activation,congruent,correct,400
sub-25,456,low_activation,congruent,correct,241
sub-25,457,low_activation,incongruent,incorrect,320
sub-25,458,low_activation,incongruent,correct,357
sub-25,459,low_activation,congruent,correct,333
sub-25,460,low_activation,incongruent,correct,363
sub-25,461,low_activation,congruent,correct,316
sub-25,462,low_activation,congruent,correct,329
sub-25,463,low_activation,congruent,correct,323
sub-25,464,low_activation,congruent,correct,270
sub-25,465,low_activation,congruent,correct,293
sub-25,466,low_activation,incongruent,incorrect,257
sub-25,467,low_activation,incongruent,correct,362
sub-25,468,low_activation,incongruent,correct,472
sub-25,469,low_activation,congruent,correct,372
sub-25,470,low_activation,incongruent,correct,387
sub-25,471,low_activation,congruent,correct,252
sub-25,472,low_activation,congruent,correct,353
sub-25,473,low_activation,congruent,correct,249
sub-25,474,low_activation,congruent,correct,319
sub-25,475,low_activation,incongruent,correct,345
sub-25,476,low_activation,congruent,incorrect,322
sub-25,477,low_activation,incongruent,correct,408
sub-25,478,low_activation,congruent,correct,390
sub-25,479,low_activation,congruent,correct,357
sub-25,480,low_activation,congruent,correct,480
sub-25,481,low_activation,congruent,correct,326
sub-25,482,low_activation,incongruent,correct,425
sub-25,483,low_activation,incongruent,correct,341
sub-25,484,low_activation,incongruent,correct,463
sub-25,485,low_activation,incongruent,correct,322
sub-25,486,low_activation,incongruent,correct,384
sub-25,487,low_activation,congruent,correct,283
sub-25,488,low_activation,congruent,correct,354
sub-25,489,low_activation,incongruent,correct,377
sub-25,490,low_activation,congruent,correct,319
sub-25,491,low_activation,congruent,correct,389
sub-25,492,low_activation,incongruent,correct,370
sub-25,493,low_activation,congruent,correct,369
sub-25,494,low_activation,incongruent,correct,437
sub-25,495,low_activation,congruent,correct,475
sub-25,496,low_activation,incongruent,incorrect,317
sub-25,497,low_activation,incongruent,correct,521
sub-25,498,low_activation,incongruent,correct,440
sub-25,499,low_activation,incongruent,correct,428
sub-25,500,low_activation,congruent,correct,351
sub-25,501,low_activation,incongruent,correct,363
sub-25,502,low_activation,incongruent,correct,436
sub-25,503,low_activation,incongruent,correct,343
sub-25,504,low_activation,incongruent,correct,370
sub-25,505,low_activation,congruent,correct,497
sub-25,506,low_activation,incongruent,correct,353
sub-25,507,low_activation,incongruent,correct,415
sub-25,508,low_activation,incongruent,correct,395
sub-25,509,low_activation,congruent,correct,353
sub-25,510,low_activation,incongruent,correct,430
sub-25,511,low_activation,congruent,correct,353
sub-25,512,low_activation,incongruent,correct,401
sub-25,513,low_activation,congruent,correct,1005
sub-25,514,low_activation,congruent,correct,488
sub-25,515,low_activation,incongruent,correct,377
sub-25,516,low_activation,congruent,correct,385
sub-25,517,low_activation,incongruent,correct,362
sub-25,518,low_activation,congruent,correct,410
sub-25,519,low_activation,congruent,correct,335
sub-25,520,low_activation,incongruent,correct,341
sub-25,521,low_activation,incongruent,correct,349
sub-25,522,low_activation,incongruent,correct,335
sub-25,523,low_activation,incongruent,correct,315
sub-25,524,low_activation,congruent,correct,286
sub-25,525,low_activation,incongruent,correct,373
sub-25,526,low_activation,congruent,correct,330
sub-25,527,low_activation,incongruent,correct,236
sub-25,528,low_activation,congruent,incorrect,349
sub-25,529,low_activation,incongruent,,
sub-25,530,low_activation,incongruent,correct,493
sub-25,531,low_activation,incongruent,correct,379
sub-25,532,low_activation,congruent,correct,371
sub-25,533,low_activation,congruent,correct,349
sub-25,534,low_activation,congruent,correct,383
sub-25,535,low_activation,congruent,correct,296
sub-25,536,low_activation,incongruent,correct,481
sub-25,537,low_activation,incongruent,correct,422
sub-25,538,low_activation,congruent,correct,359
sub-25,539,low_activation,congruent,correct,333
sub-25,540,low_activation,congruent,correct,343
sub-25,541,low_activation,incongruent,incorrect,277
sub-25,542,low_activation,congruent,correct,360
sub-25,543,low_activation,congruent,correct,339
sub-25,544,low_activation,congruent,correct,465
sub-25,545,low_activation,congruent,correct,394
sub-25,546,low_activation,incongruent,correct,419
sub-25,547,low_activation,incongruent,incorrect,329
sub-25,548,low_activation,congruent,correct,425
sub-25,549,low_activation,congruent,correct,407
sub-25,550,low_activation,congruent,correct,428
sub-25,551,low_activation,congruent,correct,511
sub-25,552,low_activation,congruent,correct,327
sub-25,553,low_activation,congruent,correct,364
sub-25,554,low_activation,congruent,correct,334
sub-25,555,low_activation,incongruent,correct,427
sub-25,556,low_activation,congruent,correct,361
sub-25,557,low_activation,congruent,correct,373
sub-25,558,low_activation,incongruent,correct,393
sub-25,559,low_activation,incongruent,correct,362
sub-25,560,low_activation,congruent,correct,418
sub-25,561,low_activation,incongruent,correct,393
sub-25,562,low_activation,incongruent,correct,330
sub-25,563,low_activation,incongruent,correct,363
sub-25,564,low_activation,congruent,correct,243
sub-25,565,low_activation,congruent,correct,417
sub-25,566,low_activation,congruent,correct,343
sub-25,567,low_activation,incongruent,correct,378
sub-25,568,low_activation,incongruent,correct,440
sub-25,569,low_activation,congruent,correct,364
sub-25,570,low_activation,congruent,correct,292
sub-25,571,low_activation,incongruent,correct,359
sub-25,572,low_activation,congruent,correct,413
sub-25,573,low_activation,incongruent,correct,339
sub-25,574,low_activation,incongruent,correct,401
sub-25,575,low_activation,incongruent,correct,378
sub-25,576,low_activation,incongruent,correct,303
sub-25,577,low_activation,incongruent,correct,326
sub-25,578,low_activation,congruent,correct,333
sub-25,579,low_activation,incongruent,correct,298
sub-25,580,low_activation,incongruent,correct,427
sub-25,581,low_activation,congruent,correct,374
sub-25,582,low_activation,incongruent,correct,488
sub-25,583,low_activation,congruent,correct,344
sub-25,584,low_activation,incongruent,correct,506
sub-25,585,low_activation,incongruent,correct,296
sub-25,586,low_activation,incongruent,correct,347
sub-25,587,low_activation,incongruent,correct,325
sub-25,588,low_activation,incongruent,correct,304
sub-25,589,low_activation,congruent,correct,396
sub-25,590,low_activation,congruent,correct,329
sub-25,591,low_activation,incongruent,correct,353
sub-25,592,low_activation,incongruent,correct,431
sub-25,593,low_activation,congruent,correct,371
sub-25,594,low_activation,congruent,correct,369
sub-25,595,low_activation,congruent,correct,281
sub-25,596,low_activation,incongruent,correct,350
sub-25,597,low_activation,incongruent,correct,312
sub-25,598,low_activation,incongruent,correct,383
sub-25,599,low_activation,incongruent,correct,357
sub-25,600,low_activation,congruent,correct,317
sub-25,601,low_activation,congruent,correct,445
sub-25,602,low_activation,incongruent,correct,314
sub-25,603,low_activation,incongruent,correct,417
sub-25,604,low_activation,incongruent,correct,262
sub-25,605,low_activation,congruent,correct,305
sub-25,606,low_activation,incongruent,correct,457
sub-25,607,low_activation,congruent,correct,380
sub-25,608,low_activation,congruent,correct,282
sub-25,609,low_activation,incongruent,correct,410
sub-25,610,low_activation,congruent,correct,530
sub-25,611,low_activation,congruent,correct,433
sub-25,612,low_activation,incongruent,correct,419
sub-25,613,low_activation,congruent,correct,282
sub-25,614,low_activation,incongruent,incorrect,280
sub-25,615,low_activation,incongruent,correct,425
sub-25,616,low_activation,congruent,correct,421
sub-25,617,low_activation,incongruent,correct,359
sub-25,618,low_activation,congruent,correct,291
sub-25,619,low_activation,congruent,correct,370
sub-25,620,low_activation,incongruent,correct,378
sub-25,621,low_activation,incongruent,correct,357
sub-25,622,low_activation,congruent,correct,327
sub-25,623,low_activation,congruent,correct,234
sub-25,624,low_activation,incongruent,correct,322
sub-25,625,low_activation,congruent,correct,281
sub-25,626,low_activation,congruent,correct,425
sub-25,627,low_activation,congruent,correct,288
sub-25,628,low_activation,congruent,correct,257
sub-25,629,low_activation,incongruent,correct,463
sub-25,630,low_activation,incongruent,correct,339
sub-25,631,low_activation,incongruent,correct,402
sub-25,632,low_activation,congruent,correct,427
sub-25,633,low_activation,incongruent,correct,329
sub-25,634,low_activation,incongruent,correct,293
sub-25,635,low_activation,incongruent,correct,327
sub-25,636,low_activation,incongruent,correct,403
sub-25,637,low_activation,incongruent,correct,465
sub-25,638,low_activation,incongruent,correct,561
sub-25,639,low_activation,incongruent,correct,428
sub-25,640,low_activation,congruent,correct,465
sub-25,641,low_activation,incongruent,correct,397
sub-25,642,low_activation,congruent,correct,286
sub-25,643,low_activation,incongruent,correct,337
sub-25,644,low_activation,congruent,correct,315
sub-25,645,low_activation,congruent,correct,347
sub-25,646,low_activation,congruent,correct,279
sub-25,647,low_activation,congruent,correct,374
sub-25,648,low_activation,incongruent,correct,443
sub-25,649,low_activation,incongruent,correct,367
sub-25,650,low_activation,congruent,correct,403
sub-25,651,low_activation,congruent,correct,382
sub-25,652,low_activation,incongruent,correct,271
sub-25,653,low_activation,incongruent,correct,374
sub-25,654,low_activation,incongruent,incorrect,345
sub-25,655,low_activation,congruent,correct,485
sub-25,656,low_activation,congruent,correct,411
sub-25,657,low_activation,incongruent,correct,296
sub-25,658,low_activation,congruent,correct,373
sub-25,659,low_activation,incongruent,correct,383
sub-25,660,low_activation,congruent,correct,353
sub-25,661,low_activation,incongruent,correct,334
sub-25,662,low_activation,incongruent,correct,439
sub-25,663,low_activation,congruent,correct,422
sub-25,664,low_activation,incongruent,correct,348
sub-25,665,low_activation,incongruent,correct,449
sub-25,666,low_activation,congruent,correct,331
sub-25,667,low_activation,incongruent,correct,618
sub-25,668,low_activation,incongruent,correct,408
sub-25,669,low_activation,incongruent,correct,349
sub-25,670,low_activation,incongruent,correct,341
sub-25,671,low_activation,congruent,correct,343
sub-25,672,low_activation,incongruent,correct,322
sub-25,673,low_activation,congruent,correct,335
sub-25,674,low_activation,incongruent,correct,415
sub-25,675,low_activation,incongruent,correct,357
sub-25,676,low_activation,congruent,correct,415
sub-25,677,low_activation,congruent,correct,307
sub-25,678,low_activation,congruent,correct,387
sub-25,679,low_activation,incongruent,correct,349
sub-25,680,low_activation,congruent,correct,413
sub-25,681,low_activation,incongruent,correct,340
sub-25,682,low_activation,congruent,correct,370
sub-25,683,low_activation,congruent,correct,310
sub-25,684,low_activation,incongruent,correct,419
sub-25,685,low_activation,incongruent,correct,628
sub-25,686,low_activation,congruent,correct,357
sub-25,687,low_activation,incongruent,correct,443
sub-25,688,low_activation,incongruent,correct,549
sub-25,689,low_activation,incongruent,correct,417
sub-25,690,low_activation,congruent,correct,259
sub-25,691,low_activation,incongruent,correct,414
sub-25,692,low_activation,congruent,correct,321
sub-25,693,low_activation,incongruent,correct,378
sub-25,694,low_activation,congruent,correct,367
sub-25,695,low_activation,incongruent,correct,290
sub-25,696,low_activation,incongruent,correct,334
sub-25,697,low_activation,congruent,correct,403
sub-25,698,low_activation,incongruent,correct,422
sub-25,699,low_activation,congruent,correct,451
sub-25,700,low_activation,incongruent,correct,445
sub-25,701,low_activation,congruent,correct,380
sub-25,702,low_activation,incongruent,incorrect,436
sub-25,703,low_activation,congruent,correct,409
sub-25,704,low_activation,incongruent,correct,341
sub-25,705,low_activation,incongruent,correct,443
sub-25,706,low_activation,congruent,correct,217
sub-25,707,low_activation,incongruent,correct,393
sub-25,708,low_activation,incongruent,correct,399
sub-25,709,low_activation,congruent,correct,321
sub-25,710,low_activation,incongruent,correct,371
sub-25,711,low_activation,congruent,correct,349
sub-25,712,low_activation,incongruent,correct,329
sub-25,713,low_activation,incongruent,correct,283
sub-25,714,low_activation,incongruent,correct,445
sub-25,715,low_activation,incongruent,correct,391
sub-25,716,low_activation,congruent,correct,407
sub-25,717,low_activation,incongruent,correct,419
sub-25,718,low_activation,incongruent,correct,337
sub-25,719,low_activation,congruent,incorrect,617
sub-25,720,low_activation,incongruent,correct,424
sub-25,721,low_activation,incongruent,correct,402
sub-25,722,low_activation,congruent,correct,389
sub-25,723,low_activation,incongruent,correct,483
sub-25,724,low_activation,incongruent,correct,471
sub-25,725,low_activation,incongruent,correct,429
sub-25,726,low_activation,incongruent,correct,431
sub-25,727,low_activation,congruent,correct,411
sub-25,728,low_activation,incongruent,correct,503
sub-25,729,low_activation,incongruent,correct,361
sub-25,730,low_activation,congruent,correct,454
sub-25,731,low_activation,congruent,correct,277
sub-25,732,low_activation,congruent,correct,465
sub-25,733,low_activation,congruent,correct,350
sub-25,734,low_activation,congruent,correct,313
sub-25,735,low_activation,incongruent,correct,369
sub-25,736,low_activation,incongruent,correct,314
sub-25,737,low_activation,congruent,correct,455
sub-25,738,low_activation,congruent,correct,354
sub-25,739,low_activation,congruent,correct,257
sub-25,740,low_activation,congruent,correct,407
sub-25,741,low_activation,congruent,correct,330
sub-25,742,low_activation,incongruent,correct,414
sub-25,743,low_activation,congruent,correct,379
sub-25,744,low_activation,congruent,correct,540
sub-25,745,low_activation,incongruent,correct,546
sub-25,746,low_activation,incongruent,correct,558
sub-25,747,low_activation,incongruent,correct,355
sub-25,748,low_activation,incongruent,correct,407
sub-25,749,low_activation,congruent,correct,377
sub-25,750,low_activation,congruent,correct,277
sub-25,751,low_activation,incongruent,correct,395
sub-25,752,low_activation,congruent,correct,365
sub-25,753,low_activation,incongruent,correct,517
sub-25,754,low_activation,congruent,correct,243
sub-25,755,low_activation,congruent,correct,379
sub-25,756,low_activation,incongruent,correct,233
sub-25,757,low_activation,incongruent,incorrect,235
sub-25,758,low_activation,congruent,correct,258
sub-25,759,low_activation,incongruent,correct,387
sub-25,760,low_activation,incongruent,correct,401
sub-25,761,low_activation,incongruent,correct,419
sub-25,762,low_activation,congruent,correct,388
sub-25,763,low_activation,incongruent,correct,405
sub-25,764,low_activation,congruent,correct,379
sub-25,765,low_activation,incongruent,correct,362
sub-25,766,low_activation,incongruent,correct,470
sub-25,767,low_activation,congruent,correct,366
sub-25,768,low_activation,incongruent,correct,343
sub-25,769,low_activation,congruent,correct,371
sub-25,770,low_activation,congruent,correct,362
sub-25,771,low_activation,incongruent,correct,363
sub-25,772,low_activation,congruent,correct,465
sub-25,773,low_activation,incongruent,incorrect,357
sub-25,774,low_activation,incongruent,correct,357
sub-25,775,low_activation,congruent,correct,311
sub-25,776,low_activation,congruent,correct,341
sub-25,777,low_activation,congruent,correct,277
sub-25,778,low_activation,congruent,correct,355
sub-25,779,low_activation,incongruent,correct,384
sub-25,780,low_activation,incongruent,correct,351
sub-25,781,low_activation,congruent,correct,268
sub-25,782,low_activation,incongruent,correct,357
sub-25,783,low_activation,incongruent,correct,430
sub-25,784,low_activation,incongruent,correct,455
sub-25,785,low_activation,congruent,correct,459
sub-25,786,low_activation,incongruent,correct,452
sub-25,787,low_activation,incongruent,correct,326
sub-25,788,low_activation,congruent,correct,366
sub-25,789,low_activation,incongruent,correct,391
sub-25,790,low_activation,incongruent,correct,379
sub-25,791,low_activation,congruent,correct,320
sub-25,792,low_activation,incongruent,correct,372
sub-25,793,low_activation,incongruent,correct,524
sub-25,794,low_activation,congruent,correct,395
sub-25,795,low_activation,congruent,correct,362
sub-25,796,low_activation,congruent,correct,394
sub-25,797,low_activation,congruent,correct,283
sub-25,798,low_activation,congruent,correct,345
sub-25,799,low_activation,congruent,correct,277
sub-25,800,low_activation,incongruent,correct,359
sub-25,801,low_activation,congruent,correct,415
sub-25,802,low_activation,congruent,correct,443
sub-25,803,low_activation,incongruent,correct,432
sub-25,804,low_activation,incongruent,correct,365
sub-25,805,low_activation,congruent,correct,483
sub-25,806,low_activation,incongruent,correct,343
sub-25,807,low_activation,incongruent,correct,336
sub-25,808,low_activation,congruent,correct,303
sub-25,809,low_activation,incongruent,correct,339
sub-25,810,low_activation,congruent,correct,477
sub-25,811,low_activation,congruent,correct,363
sub-25,812,low_activation,congruent,correct,377
sub-25,813,low_activation,congruent,correct,355
sub-25,814,low_activation,incongruent,correct,379
sub-25,815,low_activation,incongruent,correct,341
sub-25,816,low_activation,congruent,correct,318
sub-25,817,low_activation,incongruent,correct,432
sub-25,818,low_activation,incongruent,correct,377
sub-25,819,low_activation,incongruent,correct,402
sub-25,820,low_activation,incongruent,correct,349
sub-25,821,low_activation,congruent,correct,377
sub-25,822,low_activation,congruent,correct,369
sub-25,823,low_activation,congruent,correct,360
sub-25,824,low_activation,incongruent,correct,426
sub-25,825,low_activation,congruent,correct,391
sub-25,826,low_activation,incongruent,correct,377
sub-25,827,low_activation,incongruent,incorrect,369
sub-25,828,low_activation,incongruent,correct,330
sub-25,829,low_activation,congruent,correct,425
sub-25,830,low_activation,congruent,correct,305
sub-25,831,low_activation,incongruent,correct,306
sub-25,832,low_activation,incongruent,correct,382
sub-25,833,low_activation,incongruent,correct,358
sub-25,834,low_activation,incongruent,correct,386
sub-25,835,low_activation,congruent,correct,434
sub-25,836,low_activation,congruent,correct,325
sub-25,837,low_activation,incongruent,correct,490
sub-25,838,low_activation,congruent,correct,341
sub-25,839,low_activation,incongruent,correct,378
sub-25,840,low_activation,congruent,correct,384
